Age [ka BP]	Depth ice/snow [m]	Age [year AD]	Depth top [m]	Depth bot [m]	Density [kg/m**3]	Acc rate ice [kg/m**2/a]	d2H [per mil SMOW]	d18O H2O [per mil SMOW]	d xs [per mil SMOW]
-0.047	0.125	1997	0.00	0.25					
-0.046	0.365	1996	0.25	0.48					
-0.045	0.610	1995	0.48	0.74					
-0.044	0.890	1994	0.74	1.04	340	101.901	-341.8	-43.32	4.8
-0.043	1.130	1993	1.04	1.22	334	60.185	-328.6	-42.15	8.6
-0.042	1.275	1992	1.22	1.33	341	37.548	-335.9	-43.04	8.4
-0.041	1.490	1991	1.33	1.65	368	117.669	-356.8	-45.51	7.3
-0.040	1.710	1990	1.65	1.77	407	48.865	-346.2	-44.34	8.5
-0.039	1.855	1989	1.77	1.94	405	68.848	-334.1	-42.80	8.3
-0.038	2.025	1988	1.94	2.11	392	66.728	-340.6	-43.51	7.5
-0.037	2.175	1987	2.11	2.24	379	49.215	-328.2	-41.98	7.7
-0.036	2.290	1986	2.24	2.34	369	36.932	-344.7	-44.09	8.0
-0.035	2.405	1985	2.34	2.47	364	47.328	-362.9	-46.42	8.5
-0.034	2.535	1984	2.47	2.60	366	47.599	-371.4	-47.57	9.1
-0.033	2.665	1983	2.60	2.73	374	48.557	-372.0	-47.85	10.2
-0.032	2.790	1982	2.73	2.85	379	45.508	-353.1		
-0.031	2.905	1981	2.85	2.96	376	41.403	-334.3	-42.72	8.6
-0.030	3.060	1980	2.96	3.16	373	74.596	-335.9	-42.88	7.1
-0.029	3.265	1979	3.16	3.37	370	77.751	-359.1	-45.72	6.7
-0.028	3.460	1978	3.37	3.55	381	68.626	-359.9	-45.91	7.4
-0.027	3.665	1977	3.55	3.78	396	91.034	-332.2	-42.57	8.4
-0.026	3.870	1976	3.78	3.96	402	72.305	-349.3	-44.41	6.0
-0.025	4.035	1975	3.96	4.11	390	58.532	-356.5	-45.34	6.2
-0.024	4.185	1974	4.11	4.26	381	57.125	-353.7	-45.29	8.6
-0.023	4.315	1973	4.26	4.37	379	41.694	-354.8	-45.39	8.3
-0.022	4.440	1972	4.37	4.51	381	53.302	-367.8	-46.73	6.0
-0.021	4.590	1971	4.51	4.67	383	61.297	-344.4	-43.70	5.2
-0.020	4.725	1970	4.67	4.78	385	42.342	-330.1	-41.69	3.5
-0.019	4.845	1969	4.78	4.91	387	50.284	-341.9	-43.65	7.3
-0.018	4.960	1968	4.91	5.01	388	38.842	-343.1	-43.97	8.6
-0.017	5.065	1967	5.01	5.12	390	42.893	-340.2	-43.42	7.1
-0.016	5.190	1966	5.12	5.26	392	54.835	-355.2	-44.98	4.6
-0.015	5.335	1965	5.26	5.41	394	59.086	-358.4	-45.78	7.8
-0.014	5.455	1964	5.41	5.50	396	35.614	-372.7	-47.64	8.5
-0.013	5.600	1963	5.50	5.70	401	80.210	-349.1	-44.66	8.2
-0.012	5.760	1962	5.70	5.82	408	49.019	-341.0	-43.54	7.3
-0.011	5.880	1961	5.82	5.94	414	49.624	-360.9	-45.86	6.0
-0.010	5.965	1960	5.94	5.99	418	20.909	-370.0	-46.92	5.4
-0.009	6.070	1959	5.99	6.15	423	67.631	-360.8	-45.94	6.7
-0.008	6.285	1958	6.15	6.42	431	116.275	-332.9	-42.61	8.0
-0.007	6.475	1957	6.42	6.53	433	47.645	-337.5	-42.83	5.2
-0.006	6.590	1956	6.53	6.65	434	52.132	-356.5	-45.16	4.8
-0.005	6.720	1955	6.65	6.79	436	61.001	-351.3	-44.98	8.6
-0.004	6.875	1954	6.79	6.96	437	74.347	-355.0	-45.51	9.1
-0.003	7.035	1953	6.96	7.11	439	65.848	-368.6	-47.16	8.7
-0.002	7.180	1952	7.11	7.25	440	61.667	-348.3	-44.60	8.5
-0.001	7.340	1951	7.25	7.43	442	79.584	-355.6	-45.45	8.0
0.000	7.495	1950	7.43	7.56	444	57.687	-348.1	-44.80	10.3
0.001	7.605	1949	7.56	7.65	445	40.038	-343.0	-43.99	9.0
0.002	7.705	1948	7.65	7.76	446	49.047	-353.1	-45.06	7.4
0.003	7.825	1947	7.76	7.89	447	58.129	-353.7	-45.31	8.7
0.004	7.955	1946	7.89	8.02	448	58.308	-349.6	-44.79	8.7
0.005	8.105	1945	8.02	8.19	450	76.502	-350.0	-44.74	7.9
0.006	8.265	1944	8.19	8.34	451	67.662	-350.8	-44.64	6.3
0.007	8.415	1943	8.34	8.49	448	67.234	-354.0	-44.98	5.9
0.008	8.540	1942	8.49	8.59	445	44.512	-370.0	-47.15	7.2
0.009	8.625	1941	8.59	8.66	443	31.029	-356.7	-45.61	8.2
0.010	8.715	1940	8.66	8.77	441	48.523	-341.9	-43.93	9.6
0.011	8.845	1939	8.77	8.92	442	66.339	-342.7	-43.80	7.7
0.012	8.990	1938	8.92	9.06	446	62.407	-342.3	-43.77	7.8
0.013	9.120	1937	9.06	9.18	449	53.865	-359.2	-45.78	7.0
0.014	9.280	1936	9.18	9.38	453	90.681	-337.9	-43.17	7.5
0.015	9.430	1935	9.38	9.48	459	45.909	-339.9	-43.30	6.6
0.016	9.555	1934	9.48	9.63	464	69.547	-344.7	-44.24	9.2
0.017	9.685	1933	9.63	9.74	468	51.529	-357.2	-45.79	9.1
0.018	9.850	1932	9.74	9.96	471	103.712	-339.3	-43.59	9.5
0.019	10.015	1931	9.96	10.07	473	52.015	-354.0	-44.90	5.3
0.020	10.155	1930	10.07	10.24	474	80.587	-339.2	-43.51	8.9
0.021	10.290	1929	10.24	10.34	475	47.461	-343.0	-43.85	7.8
0.022	10.400	1928	10.34	10.46	474	56.929	-366.1	-46.59	6.6
0.023	10.510	1927	10.46	10.56	474	47.423	-369.2	-47.23	8.6
0.024	10.630	1926	10.56	10.70	474	66.360	-360.3	-46.04	8.1
0.025	10.745	1925	10.70	10.79	474	42.643	-351.9	-44.99	8.0
0.026	10.910	1924	10.79	11.03	475	113.986	-335.6	-43.12	9.3
0.027	11.075	1923	11.03	11.12	477	42.957	-328.7	-42.41	10.6
0.028	11.160	1922	11.12	11.20	478	38.282	-334.1	-42.76	8.0
0.029	11.275	1921	11.20	11.35	480	71.979	-335.1	-43.00	8.9
0.030	11.395	1920	11.35	11.44	481	43.272	-335.4	-42.89	7.7
0.031	11.475	1919	11.44	11.51	482	33.702	-340.1	-43.56	8.3
0.032	11.550	1918	11.51	11.59	482	38.560	-345.9	-44.20	7.7
0.033	11.635	1917	11.59	11.68	483	43.444	-358.8	-45.61	6.2
0.034	11.735	1916	11.68	11.79	484	53.207	-348.2	-44.46	7.5
0.035	11.835	1915	11.79	11.88	486	43.749	-338.7	-43.31	7.8
0.036	11.945	1914	11.88	12.01	490	63.684	-341.4	-43.66	7.9
0.037	12.070	1913	12.01	12.13	494	59.258	-352.4	-45.08	8.2
0.038	12.190	1912	12.13	12.25	497	59.684	-358.9	-45.87	8.1
0.039	12.300	1911	12.25	12.35	498	49.839	-363.0	-46.18	6.5
0.040	12.410	1910	12.35	12.47	498	59.726	-372.3	-47.12	4.7
0.041	12.530	1909	12.47	12.59	497	59.629	-371.0	-47.30	7.4
0.042	12.630	1908	12.59	12.67	496	39.702	-371.4	-47.61	9.6
0.043	12.720	1907	12.67	12.77	496	49.582	-366.8	-46.91	8.5
0.044	12.825	1906	12.77	12.88	497	54.644	-353.9	-45.16	7.4
0.045	12.920	1905	12.88	12.96	498	39.875	-347.0	-44.46	8.7
0.046	13.015	1904	12.96	13.07	500	55.027	-353.4	-45.18	8.0
0.047	13.130	1903	13.07	13.19	502	60.262	-355.3	-45.29	7.0
0.048	13.250	1902	13.19	13.31	504	60.478	-359.5	-45.86	7.4
0.049	13.380	1901	13.31	13.45	504	70.517	-354.3	-45.35	8.5
0.050	13.510	1900	13.45	13.57	503	60.375	-347.6	-44.51	8.5
0.051	13.600	1899	13.57	13.63	503	30.165	-346.0	-44.19	7.5
0.052	13.680	1898	13.63	13.73	502	50.236	-347.8	-44.62	9.1
0.053	13.830	1897	13.73	13.93	502	100.483	-349.6	-44.72	8.1
0.054	13.965	1896	13.93	14.00	503	35.205	-366.7	-46.76	7.4
0.055	14.040	1895	14.00	14.08	503	40.259	-368.5	-46.97	7.3
0.056	14.165	1894	14.08	14.25	504	85.640	-360.7	-46.05	7.7
0.057	14.305	1893	14.25	14.36	505	55.543	-353.7	-45.07	6.8
0.058	14.415	1892	14.36	14.47	507	55.730	-349.0	-44.46	6.7
0.059	14.515	1891	14.47	14.56	508	45.715	-352.1	-44.82	6.4
0.060	14.610	1890	14.56	14.66	509	50.937	-349.2	-44.56	7.3
0.061	14.710	1889	14.66	14.76	511	51.077	-351.4	-44.81	7.1
0.062	14.805	1888	14.76	14.85	512	46.102	-362.0	-46.23	7.9
0.063	14.905	1887	14.85	14.96	514	56.559	-357.7	-46.06	10.7
0.064	15.025	1886	14.96	15.09	516	67.110	-359.9	-46.19	9.7
0.065	15.135	1885	15.09	15.18	518	46.642	-367.6	-46.98	8.2
0.066	15.240	1884	15.18	15.30	520	62.391	-370.3	-47.16	7.0
0.067	15.365	1883	15.30	15.43	521	67.756	-351.6	-44.98	8.2
0.068	15.515	1882	15.43	15.60	523	88.847	-341.6	-43.88	9.4
0.069	15.675	1881	15.60	15.75	524	78.608	-361.0	-46.10	7.8
0.070	15.810	1880	15.75	15.87	525	62.953	-345.2	-44.46	10.5
0.071	15.915	1879	15.87	15.96	524	47.131	-347.1	-44.50	8.9
0.072	16.005	1878	15.96	16.05	523	47.056	-354.7	-45.43	8.7
0.073	16.095	1877	16.05	16.14	522	46.982	-339.5		
0.074	16.175	1876	16.14	16.21	521	36.486	-340.0	-44.03	8.8
0.075	16.265	1875	16.21	16.32	522	57.413	-343.2	-43.97	8.5
0.076	16.390	1874	16.32	16.46	526	73.654	-356.5	-45.38	6.5
0.077	16.515	1873	16.46	16.57	531	58.388	-358.2	-45.82	8.3
0.078	16.635	1872	16.57	16.70	535	69.565	-340.9	-43.91	10.3
0.079	16.780	1871	16.70	16.86	538	86.036	-346.4	-44.34	8.4
0.080	16.920	1870	16.86	16.98	538	64.516	-355.4	-45.15	5.8
0.081	17.035	1869	16.98	17.09	538	59.126	-350.8	-44.82	7.8
0.082	17.160	1868	17.09	17.23	537	75.232	-347.8	-44.71	9.9
0.083	17.315	1867	17.23	17.40	538	91.533	-345.3	-44.24	8.5
0.084	17.470	1866	17.40	17.54	541	75.712	-341.2	-43.65	8.0
0.085	17.575	1865	17.54	17.61	542	37.966	-354.1	-45.04	6.2
0.086	17.660	1864	17.61	17.71	544	54.359	-363.4	-46.27	6.7
0.087	17.785	1863	17.71	17.86	545	81.793	-359.7	-45.93	7.7
0.088	17.895	1862	17.86	17.93	546	38.242	-356.1	-45.49	7.9
0.089	17.995	1861	17.93	18.06	547	71.150	-355.5	-45.69	10.0
0.090	18.120	1860	18.06	18.18	548	65.818	-362.8	-46.50	9.2
0.091	18.210	1859	18.18	18.24	549	32.956	-361.9	-46.47	9.9
0.092	18.320	1858	18.24	18.40	550	88.012	-351.5	-45.22	10.2
0.093	18.455	1857	18.40	18.51	551	60.579	-358.0	-45.74	7.9
0.094	18.545	1856	18.51	18.58	551	38.582	-359.6	-46.02	8.5
0.095	18.630	1855	18.58	18.68	552	55.160	-360.4	-46.27	9.7
0.096	18.730	1854	18.68	18.78	552	55.204	-369.6	-47.17	7.8
0.097	18.815	1853	18.78	18.85	552	38.656	-368.8	-47.20	8.8
0.098	18.910	1852	18.85	18.97	552	66.277	-357.7	-46.00	10.3
0.099	19.015	1851	18.97	19.06	552	49.717	-357.1	-45.91	10.2
0.100	19.095	1850	19.06	19.13	552	38.673	-358.6	-46.02	9.5
0.101	19.190	1849	19.13	19.25	553	66.313	-358.9	-45.95	8.7
0.102	19.330	1848	19.25	19.41	553	88.544	-358.4	-45.80	8.0
0.103	19.470	1847	19.41	19.53	554	66.542	-358.4	-45.70	7.2
0.104	19.590	1846	19.53	19.65	556	66.658	-359.3	-45.84	7.4
0.105	19.695	1845	19.65	19.74	556	50.072	-365.5	-46.46	6.2
0.106	19.765	1844	19.74	19.79	557	27.865	-367.7	-46.83	6.9
0.107	19.825	1843	19.79	19.86	558	39.096	-368.3	-46.82	6.2
0.108	19.905	1842	19.86	19.95	560	50.420	-361.8	-46.09	7.0
0.109	20.030	1841	19.95	20.11	563	90.105	-351.7	-44.94	7.8
0.110	20.185	1840	20.11	20.26	567	84.992	-354.0	-45.12	7.0
0.111	20.310	1839	20.26	20.36	568	56.765	-358.3	-45.80	8.1
0.112	20.415	1838	20.36	20.47	568	62.423	-353.4	-45.26	8.7
0.113	20.500	1837	20.47	20.53	567	34.041	-350.9	-44.86	8.0
0.114	20.590	1836	20.53	20.65	567	68.061	-354.7	-45.11	6.2
0.115	20.705	1835	20.65	20.76	567	62.371	-355.7	-45.21	5.9
0.116	20.810	1834	20.76	20.86	567	56.700	-350.8	-44.51	5.3
0.117	20.910	1833	20.86	20.96	567	56.711	-345.7	-43.96	6.0
0.118	21.005	1832	20.96	21.05	567	51.051	-347.7	-44.33	7.0
0.119	21.100	1831	21.05	21.15	567	56.736	-346.1	-44.09	6.6
0.120	21.215	1830	21.15	21.28	568	73.790	-334.5	-42.82	8.0
0.121	21.325	1829	21.28	21.37	569	51.206	-332.9	-42.77	9.3
0.122	21.440	1828	21.37	21.51	571	79.911	-356.8	-45.59	7.9
0.123	21.560	1827	21.51	21.61	573	57.271	-364.9	-46.56	7.6
0.124	21.655	1826	21.61	21.70	574	51.686	-357.7	-45.62	7.3
0.125	21.760	1825	21.70	21.82	576	69.126	-356.1	-45.27	6.1
0.126	21.875	1824	21.82	21.93	576	63.309	-354.6	-45.06	5.9
0.127	22.015	1823	21.93	22.10	573	97.473	-363.6	-46.05	4.8
0.128	22.150	1822	22.10	22.20	571	57.130	-362.6	-46.12	6.3
0.129	22.245	1821	22.20	22.29	570	51.321	-362.9	-46.06	5.6
0.130	22.350	1820	22.29	22.41	572	68.579	-357.3	-45.36	5.6
0.131	22.450	1819	22.41	22.49	573	45.862	-347.7	-44.04	4.6
0.132	22.545	1818	22.49	22.60	575	63.232	-345.9	-44.05	6.5
0.133	22.640	1817	22.60	22.68	576	46.107	-354.4	-45.03	5.8
0.134	22.735	1816	22.68	22.79	578	63.578	-359.0	-45.72	6.8
0.135	22.880	1815	22.79	22.97	581	104.537	-359.2	-45.82	7.3
0.136	23.020	1814	22.97	23.07	584	58.357	-352.8	-45.01	7.2
0.137	23.115	1813	23.07	23.16	586	52.700	-347.9	-44.40	7.3
0.138	23.225	1812	23.16	23.29	588	76.370	-347.6	-44.28	6.6
0.139	23.350	1811	23.29	23.41	587	70.456	-347.1	-44.07	5.5
0.140	23.460	1810	23.41	23.51	586	58.619	-344.3	-43.72	5.5
0.141	23.550	1809	23.51	23.59	585	46.832	-337.9	-43.07	6.7
0.142	23.670	1808	23.59	23.75	584	93.507	-335.1	-42.81	7.4
0.143	23.785	1807	23.75	23.82	584	40.904	-347.3	-44.08	5.3
0.144	23.845	1806	23.82	23.87	585	29.258	-352.7	-44.50	3.3
0.145	23.945	1805	23.87	24.02	587	88.029	-353.9	-45.17	7.4
0.146	24.065	1804	24.02	24.11	589	52.991	-347.6	-44.45	8.0
0.147	24.185	1803	24.11	24.26	590	88.576	-340.4	-43.69	9.1
0.148	24.315	1802	24.26	24.37	591	65.027	-346.1	-44.18	7.3
0.149	24.425	1801	24.37	24.48	590	64.959	-343.6	-44.02	8.6
0.150	24.515	1800	24.48	24.55	590	41.306	-348.1	-44.46	7.6
0.151	24.650	1799	24.55	24.75	589	117.882	-348.6	-44.55	7.8
0.152	24.790	1798	24.75	24.83	589	47.132	-352.2	-44.83	6.4
0.153	24.880	1797	24.83	24.93	589	58.925	-339.0	-43.31	7.5
0.154	25.015	1796	24.93	25.10	589	100.199	-328.4	-42.29	9.9
0.155	25.190	1795	25.10	25.28	590	106.135	-356.4	-45.47	7.4
0.156	25.335	1794	25.28	25.39	590	64.904	-366.0	-46.70	7.6
0.157	25.435	1793	25.39	25.48	590	53.147	-364.8	-46.53	7.4
0.158	25.530	1792	25.48	25.58	591	59.097	-357.8	-45.69	7.7
0.159	25.635	1791	25.58	25.69	591	65.056		-44.35	
0.160	25.755	1790	25.69	25.82	592	76.977	-343.2	-43.99	8.7
0.161	25.875	1789	25.82	25.93	593	65.263	-353.0	-45.05	7.4
0.162	25.955	1788	25.93	25.98	594	29.698	-355.2	-45.28	7.0
0.163	26.050	1787	25.98	26.12	595	83.298	-347.3	-44.30	7.1
0.164	26.195	1786	26.12	26.27	596	89.461	-337.3	-43.16	8.0
0.165	26.315	1785	26.27	26.36	597	53.762	-356.5	-45.19	5.0
0.166	26.390	1784	26.36	26.42	598	35.861	-367.7	-46.67	5.7
0.167	26.470	1783	26.42	26.52	598	59.809	-369.8	-47.13	7.2
0.168	26.580	1782	26.52	26.64	599	71.830	-356.6	-45.76	9.5
0.169	26.705	1781	26.64	26.77	599	77.893	-350.9	-45.02	9.2
0.170	26.825	1780	26.77	26.88	600	65.983	-360.4	-46.28	9.8
0.171	26.920	1779	26.88	26.96	600	48.029	-369.7	-47.23	8.2
0.172	27.005	1778	26.96	27.05	601	54.074	-367.0	-46.92	8.3
0.173	27.120	1777	27.05	27.19	602	84.211	-357.5	-45.85	9.3
0.174	27.255	1776	27.19	27.32	602	78.291	-360.6	-46.34	10.1
0.175	27.410	1775	27.32	27.50	603	108.524	-363.3	-46.25	6.7
0.176	27.555	1774	27.50	27.61	604	66.387	-366.3	-46.59	6.5
0.177	27.645	1773	27.61	27.68	604	42.271	-363.9	-46.40	7.3
0.178	27.725	1772	27.68	27.77	604	54.386	-352.1	-45.10	8.7
0.179	27.830	1771	27.77	27.89	605	72.630	-347.8	-44.59	8.9
0.180	27.940	1770	27.89	27.99	606	60.641	-353.9	-45.12	7.1
0.181	28.035	1769	27.99	28.08	608	54.675	-348.5	-44.40	6.7
0.182	28.145	1768	28.08	28.21	609	79.144	-330.6	-42.24	7.4
0.183	28.275	1767	28.21	28.34	610	79.309	-327.2	-42.08	9.4
0.184	28.400	1766	28.34	28.46	611	73.306	-334.2	-42.94	9.3
0.185	28.505	1765	28.46	28.55	612	55.040	-348.1	-44.56	8.5
0.186	28.580	1764	28.55	28.61	612	36.720	-353.9	-45.29	8.4
0.187	28.685	1763	28.61	28.76	613	91.894	-353.0	-45.21	8.7
0.188	28.835	1762	28.76	28.91	612	91.821	-350.3	-44.83	8.3
0.189	28.960	1761	28.91	29.01	611	61.077	-354.3	-45.40	8.9
0.190	29.060	1760	29.01	29.11	610	60.979	-358.7	-45.90	8.5
0.191	29.135	1759	29.11	29.16	609	30.444	-354.4	-45.53	9.9
0.192	29.210	1758	29.16	29.26	608	60.834	-334.0	-42.89	9.1
0.193	29.300	1757	29.26	29.34	609	48.724	-337.1	-43.23	8.8
0.194	29.390	1756	29.34	29.44	610	61.021	-353.1	-45.08	7.5
0.195	29.475	1755	29.44	29.51	611	42.795	-358.7	-45.74	7.2
0.196	29.560	1754	29.51	29.61	612	61.243	-355.0	-45.07	5.6
0.197	29.675	1753	29.61	29.74	614	79.826	-336.7	-43.16	8.6
0.198	29.770	1752	29.74	29.80	615	36.907	-341.1	-43.70	8.5
0.199	29.855	1751	29.80	29.91	616	67.718	-350.1	-44.79	8.2
0.200	30.015	1750	29.91	30.12	616	129.470	-355.0	-45.47	8.8
0.201	30.175	1749	30.12	30.23	618	67.919	-363.7	-46.62	9.3
0.202	30.280	1748	30.23	30.33	618	61.808	-366.9	-47.02	9.3
0.203	30.375	1747	30.33	30.42	619	55.684	-359.5	-46.07	9.0
0.204	30.465	1746	30.42	30.51	619	55.739	-346.7	-44.50	9.3
0.205	30.580	1745	30.51	30.65	620	86.816	-336.1	-43.12	8.8
0.206	30.690	1744	30.65	30.73	621	49.666	-341.7	-43.52	6.5
0.207	30.775	1743	30.73	30.82	621	55.912	-351.0	-44.60	5.8
0.208	30.880	1742	30.82	30.94	621	74.539	-364.6	-46.24	5.3
0.209	30.975	1741	30.94	31.01	621	43.475	-367.0	-46.58	5.6
0.210	31.055	1740	31.01	31.10	621	55.891	-359.3	-45.75	6.7
0.211	31.170	1739	31.10	31.24	621	86.927	-347.8	-44.63	9.3
0.212	31.290	1738	31.24	31.34	621	62.132	-345.3	-44.01	6.8
0.213	31.385	1737	31.34	31.43	622	55.988	-349.1	-44.68	8.4
0.214	31.465	1736	31.43	31.50	623	43.597	-352.2	-45.10	8.6
0.215	31.540	1735	31.50	31.58	623	49.869	-348.8	-44.81	9.7
0.216	31.620	1734	31.58	31.66	624	49.920	-352.0	-45.16	9.3
0.217	31.715	1733	31.66	31.77	625	68.722	-364.4	-46.39	6.7
0.218	31.840	1732	31.77	31.91	625	87.462	-367.0	-46.68	6.5
0.219	31.955	1731	31.91	32.00	624	56.174	-357.0	-45.56	7.5
0.220	32.055	1730	32.00	32.11	624	68.596	-354.3	-45.21	7.4
0.221	32.155	1729	32.11	32.20	623	56.080	-352.9	-44.97	6.8
0.222	32.280	1728	32.20	32.36	624	99.763	-345.7	-44.24	8.3
0.223	32.390	1727	32.36	32.42	624	37.467	-336.9	-43.32	9.7
0.224	32.470	1726	32.42	32.52	625	62.519	-342.1	-43.93	9.3
0.225	32.555	1725	32.52	32.59	626	43.822	-361.6	-46.05	6.8
0.226	32.640	1724	32.59	32.69	627	62.666	-368.6	-47.06	7.9
0.227	32.720	1723	32.69	32.75	628	37.648	-374.3	-47.74	7.7
0.228	32.810	1722	32.75	32.87	628	75.377	-375.9	-47.77	6.3
0.229	32.905	1721	32.87	32.94	629	44.038	-363.7	-46.42	7.7
0.230	33.000	1720	32.94	33.06	630	75.593	-349.0	-44.70	8.6
0.231	33.090	1719	33.06	33.12	631	37.855	-339.7	-43.60	9.1
0.232	33.155	1718	33.12	33.19	632	44.202	-339.2	-43.49	8.7
0.233	33.230	1717	33.19	33.27	632	50.579	-340.3	-43.50	7.7
0.234	33.310	1716	33.27	33.35	633	50.654	-344.7	-43.85	6.1
0.235	33.405	1715	33.35	33.46	634	69.788	-363.5	-45.80	2.9
0.236	33.510	1714	33.46	33.56	636	63.568	-363.3	-46.18	6.1
0.237	33.600	1713	33.56	33.64	637	50.936	-357.3	-45.66	8.0
0.238	33.680	1712	33.64	33.72	638	51.016	-356.4	-45.35	6.4
0.239	33.770	1711	33.72	33.82	639	63.869	-357.7	-45.32	4.9
0.240	33.870	1710	33.82	33.92	640	63.950	-358.3	-45.47	5.5
0.241	33.965	1709	33.92	34.01	640	57.622	-360.1	-45.70	5.5
0.242	34.075	1708	34.01	34.14	641	83.336	-358.7	-45.46	5.0
0.243	34.190	1707	34.14	34.24	642	64.198	-349.4	-44.40	5.7
0.244	34.275	1706	34.24	34.31	642	44.968	-346.3	-44.25	7.7
0.245	34.370	1705	34.31	34.43	642	77.103	-353.4	-45.11	7.4
0.246	34.460	1704	34.43	34.49	643	38.561	-354.5	-45.36	8.3
0.247	34.540	1703	34.49	34.59	643	64.278	-354.1	-45.32	8.5
0.248	34.630	1702	34.59	34.67	643	51.433	-356.9	-45.23	4.9
0.249	34.715	1701	34.67	34.76	643	57.875	-362.9	-46.12	6.1
0.250	34.810	1700	34.76	34.86	643	64.315	-363.0	-46.14	6.1
0.251	34.920	1699	34.86	34.98	643	77.148	-360.8	-46.02	7.4
0.252	35.035	1698	34.98	35.09	643	70.691	-356.4	-45.58	8.3
0.253	35.140	1697	35.09	35.19	642	64.239	-351.7	-44.99	8.2
0.254	35.240	1696	35.19	35.29	642	64.246	-348.7	-44.75	9.3
0.255	35.355	1695	35.29	35.42	643	83.612	-352.8	-45.05	7.6
0.256	35.475	1694	35.42	35.53	644	70.863	-357.4	-45.54	6.9
0.257	35.570	1693	35.53	35.61	645	51.596	-360.1	-45.76	5.9
0.258	35.650	1692	35.61	35.69	646	51.645	-364.6	-46.29	5.7
0.259	35.735	1691	35.69	35.78	646	58.157	-358.4	-45.77	7.8
0.260	35.820	1690	35.78	35.86	646	51.698	-348.4	-44.52	7.8
0.261	35.915	1689	35.86	35.97	645	70.988	-347.0	-44.11	5.9
0.262	36.035	1688	35.97	36.10	644	83.770	-350.5	-44.54	5.9
0.263	36.130	1687	36.10	36.16	644	38.617	-352.0	-44.87	7.0
0.264	36.190	1686	36.16	36.22	643	38.597	-352.5	-44.99	7.4
0.265	36.270	1685	36.22	36.32	643	64.331	-352.9	-45.00	7.1
0.266	36.370	1684	36.32	36.42	646	64.554	-352.0	-44.97	7.7
0.267	36.455	1683	36.42	36.49	647	45.308	-349.3	-44.70	8.2
0.268	36.535	1682	36.49	36.58	649	58.428	-352.6	-44.77	5.5
0.269	36.630	1681	36.58	36.68	651	65.139	-351.0	-44.85	7.8
0.270	36.735	1680	36.68	36.79	654	71.881	-344.8	-44.05	7.7
0.271	36.855	1679	36.79	36.92	654	84.989	-341.8	-43.74	8.1
0.272	36.955	1678	36.92	36.99	653	45.702	-341.5	-43.52	6.7
0.273	37.050	1677	36.99	37.11	652	78.260	-336.3	-42.85	6.5
0.274	37.170	1676	37.11	37.23	651	78.129	-336.3	-42.92	7.0
0.275	37.265	1675	37.23	37.30	651	45.539	-343.4	-43.98	8.5
0.276	37.335	1674	37.30	37.37	651	45.545	-351.3	-45.00	8.7
0.277	37.430	1673	37.37	37.49	651	78.098	-360.2	-45.82	6.4
0.278	37.530	1672	37.49	37.57	651	52.074	-358.6	-45.35	4.2
0.279	37.615	1671	37.57	37.66	651	58.597	-350.1	-44.82	8.5
0.280	37.710	1670	37.66	37.76	651	65.122	-346.2	-44.44	9.3
0.281	37.815	1669	37.76	37.87	652	71.675	-344.5	-44.19	9.0
0.282	37.915	1668	37.87	37.96	652	58.713	-340.1	-43.76	10.0
0.283	38.025	1667	37.96	38.09	653	84.928	-340.3	-43.88	10.7
0.284	38.145	1666	38.09	38.20	654	71.976	-346.8	-44.62	10.1
0.285	38.255	1665	38.20	38.31	655	72.067	-356.0	-45.51	8.1
0.286	38.360	1664	38.31	38.41	656	65.546	-362.7	-46.17	6.6
0.287	38.440	1663	38.41	38.47	656	39.342	-360.6	-45.89	6.5
0.288	38.550	1662	38.47	38.63	656	104.972	-345.9	-44.25	8.1
0.289	38.670	1661	38.63	38.71	656	52.516	-347.2	-44.41	8.1
0.290	38.755	1660	38.71	38.80	657	59.121	-354.7	-45.27	7.5
0.291	38.845	1659	38.80	38.89	658	59.215	-355.7	-45.32	6.9
0.292	38.925	1658	38.89	38.96	659	46.134	-350.0	-44.71	7.7
0.293	39.010	1657	38.96	39.06	660	66.009	-351.8	-44.92	7.6
0.294	39.125	1656	39.06	39.19	662	86.004	-364.5	-46.51	7.6
0.295	39.220	1655	39.19	39.25	663	39.767	-369.4	-47.38	9.6
0.296	39.295	1654	39.25	39.34	663	59.689	-372.9	-47.91	10.3
0.297	39.370	1653	39.34	39.40	664	39.822	-373.9	-47.87	9.1
0.298	39.465	1652	39.40	39.53	664	86.335	-364.8	-46.83	9.8
0.299	39.565	1651	39.53	39.60	665	46.535	-355.7	-45.57	8.9
0.300	39.660	1650	39.60	39.72	665	79.832	-357.2	-45.71	8.4
0.301	39.795	1649	39.72	39.87	666	99.873	-364.3	-46.41	7.0
0.302	39.920	1648	39.87	39.97	666	66.587	-360.2	-45.98	7.7
0.303	40.015	1647	39.97	40.06	666	59.926	-355.0	-45.26	7.0
0.304	40.120	1646	40.06	40.18	666	79.900	-357.0	-45.75	8.9
0.305	40.225	1645	40.18	40.27	666	59.931	-358.6	-45.68	6.8
0.306	40.315	1644	40.27	40.36	666	59.961	-357.8	-45.68	7.6
0.307	40.410	1643	40.36	40.46	667	66.664	-357.6	-45.72	8.1
0.308	40.505	1642	40.46	40.55	667	60.036	-358.1	-45.67	7.3
0.309	40.610	1641	40.55	40.67	668	80.107	-353.1	-45.06	7.3
0.310	40.735	1640	40.67	40.80	668	86.851	-350.0	-44.78	8.3
0.311	40.840	1639	40.80	40.88	668	53.437	-359.5	-45.90	7.7
0.312	40.915	1638	40.88	40.95	668	46.734	-364.0	-46.47	7.8
0.313	40.990	1637	40.95	41.03	667	53.380	-357.8	-45.80	8.6
0.314	41.080	1636	41.03	41.13	667	66.684	-348.5	-45.12	12.5
0.315	41.200	1635	41.13	41.27	666	93.285	-344.4	-44.45	11.2
0.316	41.315	1634	41.27	41.36	666	59.970	-345.2	-44.21	8.4
0.317	41.420	1633	41.36	41.48	668	80.191	-352.3	-44.83	6.4
0.318	41.530	1632	41.48	41.58	670	67.049	-357.0	-45.31	5.5
0.319	41.615	1631	41.58	41.65	672	47.044	-350.2	-44.69	7.3
0.320	41.695	1630	41.65	41.74	674	60.633	-345.6	-44.18	7.8
0.321	41.800	1629	41.74	41.86	675	80.963	-344.3	-43.97	7.4
0.322	41.915	1628	41.86	41.97	675	74.206	-353.0	-45.02	7.1
0.323	42.025	1627	41.97	42.08	674	74.196	-360.1	-45.99	7.9
0.324	42.150	1626	42.08	42.22	674	94.416	-356.6	-45.69	8.9
0.325	42.275	1625	42.22	42.33	675	74.216	-354.5	-45.41	8.8
0.326	42.380	1624	42.33	42.43	676	67.614	-353.7	-45.28	8.5
0.327	42.475	1623	42.43	42.52	678	60.982	-354.2	-45.20	7.4
0.328	42.555	1622	42.52	42.59	679	47.510	-353.4	-45.11	7.5
0.329	42.650	1621	42.59	42.71	680	81.619	-354.1	-45.21	7.5
0.330	42.750	1620	42.71	42.79	681	54.488	-363.9	-46.30	6.5
0.331	42.855	1619	42.79	42.92	681	88.574	-365.2	-46.75	8.8
0.332	42.970	1618	42.92	43.02	682	68.158	-360.0	-46.14	9.1
0.333	43.060	1617	43.02	43.10	682	54.538	-356.5	-45.82	10.1
0.334	43.155	1616	43.10	43.21	682	75.012	-357.5	-45.66	7.9
0.335	43.245	1615	43.21	43.28	682	47.745	-362.7	-46.37	8.2
0.336	43.325	1614	43.28	43.37	682	61.362	-365.7	-46.53	6.5
0.337	43.410	1613	43.37	43.45	681	54.514	-369.0	-46.90	6.2
0.338	43.505	1612	43.45	43.56	681	74.906	-367.1	-46.80	7.4
0.339	43.615	1611	43.56	43.67	680	74.849	-360.1	-45.81	6.4
0.340	43.720	1610	43.67	43.77	680	68.027	-350.4	-44.69	7.2
0.341	43.810	1609	43.77	43.85	681	54.498	-344.4	-44.05	8.0
0.342	43.895	1608	43.85	43.94	682	61.414	-347.0	-44.45	8.6
0.343	43.985	1607	43.94	44.03	684	61.521	-358.8	-45.77	7.4
0.344	44.085	1606	44.03	44.14	685	75.337	-365.6	-46.64	7.5
0.345	44.185	1605	44.14	44.23	686	61.767	-373.4	-47.45	6.2
0.346	44.265	1604	44.23	44.30	687	48.111	-375.9	-47.72	5.8
0.347	44.345	1603	44.30	44.39	688	61.962	-366.9	-46.77	7.3
0.348	44.455	1602	44.39	44.52	690	89.690	-354.9	-45.44	8.6
0.349	44.555	1601	44.52	44.59	691	48.392	-357.3	-45.42	6.1
0.350	44.645	1600	44.59	44.70	693	76.197	-351.4	-44.80	6.9
0.351	44.740	1599	44.70	44.78	694	55.477	-349.6	-44.59	7.1
0.352	44.820	1598	44.78	44.86	694	55.479	-355.8	-45.22	5.9
0.353	44.910	1597	44.86	44.96	693	69.333	-359.5	-45.63	5.5
0.354	45.015	1596	44.96	45.07	693	76.251	-352.8		
0.355	45.105	1595	45.07	45.14	693	48.514	-346.8	-44.44	8.7
0.356	45.195	1594	45.14	45.25	693	76.223	-351.0	-44.84	7.7
0.357	45.290	1593	45.25	45.33	692	55.401	-356.8	-45.50	7.3
0.358	45.390	1592	45.33	45.45	692	82.977	-359.3	-45.86	7.6
0.359	45.485	1591	45.45	45.52	690	48.327	-355.5	-45.61	9.4
0.360	45.565	1590	45.52	45.61	689	62.045	-348.5	-44.68	8.9
0.361	45.650	1589	45.61	45.69	688	55.074	-344.4	-44.22	9.4
0.362	45.720	1588	45.69	45.75	688	41.266	-345.5	-44.30	8.9
0.363	45.785	1587	45.75	45.82	688	48.181	-351.0	-44.94	8.5
0.364	45.870	1586	45.82	45.92	690	68.978	-361.4	-46.06	7.0
0.365	45.960	1585	45.92	46.00	691	55.312	-368.2	-46.74	5.8
0.366	46.030	1584	46.00	46.06	692	41.550	-368.5	-46.72	5.3
0.367	46.110	1583	46.06	46.16	694	69.415	-364.4	-46.24	5.6
0.368	46.200	1582	46.16	46.24	696	55.656	-360.0	-45.80	6.4
0.369	46.280	1581	46.24	46.32	697	55.733	-355.2	-45.37	7.8
0.370	46.385	1580	46.32	46.45	697	90.597	-357.3	-45.63	7.7
0.371	46.490	1579	46.45	46.53	697	55.760	-365.9	-46.81	8.6
0.372	46.585	1578	46.53	46.64	697	76.684	-365.8	-46.71	7.9
0.373	46.695	1577	46.64	46.75	697	76.696	-351.9	-45.17	9.4
0.374	46.790	1576	46.75	46.83	697	55.783	-345.1	-44.30	9.3
0.375	46.880	1575	46.83	46.93	697	69.714	-349.9	-44.87	9.1
0.376	46.975	1574	46.93	47.02	697	62.732	-360.0	-45.92	7.3
0.377	47.080	1573	47.02	47.14	697	83.625	-359.5	-45.83	7.2
0.378	47.165	1572	47.14	47.19	697	34.837	-352.4	-45.04	7.9
0.379	47.240	1571	47.19	47.29	697	69.667	-353.0	-44.96	6.6
0.380	47.320	1570	47.29	47.35	696	41.790	-354.9	-45.10	5.9
0.381	47.410	1569	47.35	47.47	696	83.568	-350.7	-44.85	8.1
0.382	47.520	1568	47.47	47.57	696	69.620	-350.5	-45.07	10.0
0.383	47.595	1567	47.57	47.62	696	34.804	-353.9	-45.44	9.6
0.384	47.660	1566	47.62	47.70	696	55.681	-354.8	-45.41	8.5
0.385	47.740	1565	47.70	47.78	696	55.670	-355.7	-45.62	9.3
0.386	47.825	1564	47.78	47.87	696	62.627	-355.1	-45.58	9.5
0.387	47.925	1563	47.87	47.98	696	76.544	-355.8	-45.61	9.1
0.388	48.035	1562	47.98	48.09	696	76.544	-359.0	-45.82	7.5
0.389	48.120	1561	48.09	48.15	696	41.752	-353.4	-45.10	7.5
0.390	48.225	1560	48.15	48.30	696	104.376	-336.3	-43.15	8.9
0.391	48.345	1559	48.30	48.39	697	62.697	-328.7	-42.20	8.9
0.392	48.450	1558	48.39	48.51	699	83.860	-328.1	-42.06	8.4
0.393	48.545	1557	48.51	48.58	701	49.050	-335.8	-42.83	6.8
0.394	48.615	1556	48.58	48.65	702	49.146	-341.4	-43.52	6.7
0.395	48.700	1555	48.65	48.75	704	70.382	-350.0	-44.63	7.1
0.396	48.810	1554	48.75	48.87	705	84.633	-359.3	-45.76	6.8
0.397	48.910	1553	48.87	48.95	706	56.491	-356.1	-45.46	7.6
0.398	48.990	1552	48.95	49.03	707	56.539	-346.8	-44.44	8.7
0.399	49.070	1551	49.03	49.11	707	56.592	-338.8	-43.39	8.3
0.400	49.160	1550	49.11	49.21	708	70.811	-334.4	-42.84	8.3
0.401	49.250	1549	49.21	49.29	708	56.669	-333.7	-43.13	8.1
0.402	49.335	1548	49.29	49.38	708	63.688	-345.6	-43.84	6.7
0.403	49.415	1547	49.38	49.45	707	49.465	-348.2	-44.32	6.3
0.404	49.500	1546	49.45	49.55	706	70.566	-347.1	-44.21	6.6
0.405	49.570	1545	49.55	49.59	705	28.189	-341.9	-43.63	7.1
0.406	49.645	1544	49.59	49.70	704	77.427	-341.4	-43.50	6.6
0.407	49.740	1543	49.70	49.78	703	56.263	-343.7	-43.87	7.3
0.408	49.810	1542	49.78	49.84	704	42.244	-345.8	-44.21	7.8
0.409	49.885	1541	49.84	49.93	705	63.459	-349.1	-44.67	8.3
0.410	49.980	1540	49.93	50.03	706	70.642	-359.5	-45.92	7.8
0.411	50.070	1539	50.03	50.11	708	56.627	-368.6	-47.12	8.4
0.412	50.165	1538	50.11	50.22	709	78.027	-378.3	-48.17	7.1
0.413	50.260	1537	50.22	50.30	711	56.845	-379.4	-48.43	8.0
0.414	50.360	1536	50.30	50.42	711	85.360	-371.9	-47.65	9.3
0.415	50.460	1535	50.42	50.50	712	56.942	-373.2	-47.60	7.6
0.416	50.530	1534	50.50	50.56	712	42.726	-371.9	-47.47	7.9
0.417	50.610	1533	50.56	50.66	712	71.234	-367.1	-46.85	7.7
0.418	50.700	1532	50.66	50.74	713	57.022	-358.5	-45.90	8.7
0.419	50.780	1531	50.74	50.82	713	57.071	-349.0	-44.87	10.0
0.420	50.880	1530	50.82	50.94	714	85.723	-344.9	-44.52	11.3
0.421	50.980	1529	50.94	51.02	715	57.223	-354.0	-45.30	8.4
0.422	51.055	1528	51.02	51.09	716	50.120	-359.5	-45.79	6.8
0.423	51.130	1527	51.09	51.17	717	57.335	-358.8	-45.75	7.2
0.424	51.210	1526	51.17	51.25	718	57.398	-356.6	-45.59	8.0
0.425	51.310	1525	51.25	51.37	718	86.147	-356.6	-45.53	7.7
0.426	51.410	1524	51.37	51.45	718	57.443	-358.6	-45.84	8.1
0.427	51.480	1523	51.45	51.51	718	43.082	-365.0	-46.56	7.4
0.428	51.565	1522	51.51	51.62	718	78.997	-376.0	-47.79	6.3
0.429	51.650	1521	51.62	51.68	718	43.094	-371.7	-47.42	7.7
0.430	51.745	1520	51.68	51.81	718	93.406	-364.8	-46.57	7.8
0.431	51.860	1519	51.81	51.91	720	71.963	-362.6	-46.29	7.7
0.432	51.955	1518	51.91	52.00	721	64.855	-368.6	-46.99	7.3
0.433	52.060	1517	52.00	52.12	722	86.603	-373.1	-47.45	6.5
0.434	52.170	1516	52.12	52.22	723	72.296	-368.1	-46.90	7.1
0.435	52.270	1515	52.22	52.32	724	72.379	-360.0	-45.98	7.8
0.436	52.360	1514	52.32	52.40	724	57.932	-357.5	-45.57	7.0
0.437	52.435	1513	52.40	52.47	724	50.698	-354.7	-45.15	6.5
0.438	52.505	1512	52.47	52.54	724	50.706	-354.1	-45.23	7.8
0.439	52.600	1511	52.54	52.66	724	86.942	-362.6	-46.30	7.8
0.440	52.705	1510	52.66	52.75	725	65.215	-372.5	-47.54	7.8
0.441	52.820	1509	52.75	52.89	724	101.407	-363.2	-46.30	7.2
0.442	52.970	1508	52.89	53.05	724	115.834	-344.3	-43.73	5.5
0.443	53.100	1507	53.05	53.15	724	72.365	-351.1	-44.48	4.7
0.444	53.205	1506	53.15	53.26	723	79.570	-359.0	-45.58	5.6
0.445	53.310	1505	53.26	53.36	723	72.332	-354.3	-45.37	8.7
0.446	53.410	1504	53.36	53.46	723	72.328	-357.2	-45.46	6.5
0.447	53.480	1503	53.46	53.50	723	28.932	-360.0	-45.89	7.1
0.448	53.545	1502	53.50	53.59	723	65.094	-361.3	-46.08	7.4
0.449	53.685	1501	53.59	53.78	723	137.421	-360.8	-46.03	7.5
0.450	53.835	1500	53.78	53.89	724	79.593	-361.0	-45.89	6.1
0.451	53.920	1499	53.89	53.95	724	43.440	-355.9	-45.30	6.5
0.452	53.995	1498	53.95	54.04	724	65.184	-352.7	-44.93	6.7
0.453	54.095	1497	54.04	54.15	725	79.719	-351.9	-44.82	6.7
0.454	54.175	1496	54.15	54.20	725	36.252	-354.2	-45.14	6.9
0.455	54.245	1495	54.20	54.29	725	65.282	-357.8	-45.39	5.4
0.456	54.355	1494	54.29	54.42	726	94.372	-360.6	-45.86	6.2
0.457	54.480	1493	54.42	54.54	727	87.189	-360.1	-45.93	7.4
0.458	54.580	1492	54.54	54.62	727	58.165	-352.7	-45.27	7.7
0.459	54.690	1491	54.62	54.76	728	101.865	-352.5	-45.57	8.5
0.460	54.800	1490	54.76	54.84	728	58.255	-368.7	-46.95	6.8
0.461	54.890	1489	54.84	54.94	728	72.824	-369.2	-47.12	7.8
0.462	54.970	1488	54.94	55.00	728	43.700	-365.5	-46.65	7.7
0.463	55.035	1487	55.00	55.07	728	50.985	-361.5	-46.03	6.7
0.464	55.135	1486	55.07	55.20	728	94.699	-356.8	-45.43	6.7
0.465	55.255	1485	55.20	55.31	729	80.152	-348.5	-44.31	6.0
0.466	55.330	1484	55.31	55.35	729	29.152	-338.0	-43.30	8.4
0.467	55.410	1483	55.35	55.47	729	87.488	-329.8	-42.36	9.1
0.468	55.510	1482	55.47	55.55	729	58.343	-325.4	-41.66	7.9
0.469	55.590	1481	55.55	55.63	730	58.363	-323.4	-41.53	8.8
0.470	55.710	1480	55.63	55.79	730	116.778	-322.6	-41.55	9.8
0.471	55.835	1479	55.79	55.88	731	65.758	-342.8	-43.93	8.7
0.472	55.920	1478	55.88	55.96	732	58.523	-357.9	-45.59	6.8
0.473	56.010	1477	55.96	56.06	732	73.250	-361.5	-45.96	6.2
0.474	56.100	1476	56.06	56.14	734	58.678	-357.3	-45.46	6.4
0.475	56.175	1475	56.14	56.21	734	51.405	-356.6	-45.21	5.0
0.476	56.255	1474	56.21	56.30	735	66.163	-357.2	-45.36	5.7
0.477	56.335	1473	56.30	56.37	736	51.484	-352.5	-45.13	8.5
0.478	56.410	1472	56.37	56.45	736	58.855	-351.1	-45.06	9.4
0.479	56.490	1471	56.45	56.53	736	58.867	-359.4	-45.85	7.5
0.480	56.590	1470	56.53	56.65	736	88.334	-361.2	-46.08	7.4
0.481	56.680	1469	56.65	56.71	736	44.176	-357.3	-45.78	9.0
0.482	56.750	1468	56.71	56.79	736	58.918	-356.8	-45.72	9.0
0.483	56.825	1467	56.79	56.86	737	51.563	-355.1	-45.42	8.3
0.484	56.895	1466	56.86	56.93	737	51.573	-354.2	-45.14	7.0
0.485	56.985	1465	56.93	57.04	737	81.064	-358.4	-45.54	5.9
0.486	57.085	1464	57.04	57.13	737	66.343	-355.9	-45.57	8.6
0.487	57.150	1463	57.13	57.17	737	29.490	-359.0	-45.70	6.6
0.488	57.220	1462	57.17	57.27	737	73.744	-355.4	-45.24	6.5
0.489	57.325	1461	57.27	57.38	738	81.155	-346.1	-44.25	7.9
0.490	57.420	1460	57.38	57.46	738	59.052	-347.5	-44.49	8.5
0.491	57.475	1459	57.46	57.49	738	22.155	-349.1	-44.57	7.5
0.492	57.560	1458	57.49	57.63	739	103.420	-343.4	-43.85	7.3
0.493	57.675	1457	57.63	57.72	739	66.526	-335.1	-43.01	8.9
0.494	57.780	1456	57.72	57.84	740	88.780	-346.2	-44.22	7.5
0.495	57.880	1455	57.84	57.92	741	59.276	-354.5	-45.22	7.3
0.496	57.965	1454	57.92	58.01	742	66.776	-349.6	-44.97	10.1
0.497	58.065	1453	58.01	58.12	743	81.736	-353.0	-45.30	9.5
0.498	58.145	1452	58.12	58.17	744	37.199	-352.7	-44.89	6.4
0.499	58.210	1451	58.17	58.25	745	59.574	-354.8	-45.05	5.7
0.500	58.280	1450	58.25	58.31	745	44.719	-359.2	-45.74	6.7
0.501	58.340	1449	58.31	58.37	746	44.745	-354.0	-45.12	7.0
0.502	58.400	1448	58.37	58.43	746	44.788	-348.6	-44.49	7.3
0.503	58.465	1447	58.43	58.50	747	52.287			
0.504	58.555	1446	58.50	58.61	748	82.248	-365.6	-46.48	6.2
0.505	58.655	1445	58.61	58.70	749	67.378	-371.5	-47.10	5.4
0.506	58.735	1444	58.70	58.77	749	52.428	-369.5	-46.82	5.0
0.507	58.835	1443	58.77	58.90	748	97.189	-358.4	-45.50	5.6
0.508	58.950	1442	58.90	59.00	746	74.584	-348.3	-44.51	7.8
0.509	59.055	1441	59.00	59.11	744	81.870	-356.3	-45.52	7.9
0.510	59.135	1440	59.11	59.16	743	37.157	-367.3	-46.83	7.3
0.511	59.190	1439	59.16	59.22	742	44.546	-373.6	-47.55	6.8
0.512	59.265	1438	59.22	59.31	742	66.750	-375.5	-47.76	6.6
0.513	59.345	1437	59.31	59.38	743	51.990	-372.2	-47.29	6.1
0.514	59.425	1436	59.38	59.47	744	66.955	-360.4	-45.99	7.5
0.515	59.520	1435	59.47	59.57	745	74.526	-353.8	-45.15	7.4
0.516	59.610	1434	59.57	59.65	746	59.724	-359.3	-45.73	6.6
0.517	59.670	1433	59.65	59.69	747	29.889	-364.4	-46.30	6.0
0.518	59.730	1432	59.69	59.77	748	59.852	-369.3	-46.89	5.9
0.519	59.815	1431	59.77	59.86	748	67.359	-366.1	-46.75	7.9
0.520	59.880	1430	59.86	59.90	748	29.940	-360.7	-46.28	9.6
0.521	59.945	1429	59.90	59.99	749	67.372	-347.4	-44.70	10.2
0.522	60.045	1428	59.99	60.10	749	82.353	-339.0	-43.54	9.3
0.523	60.145	1427	60.10	60.19	749	67.391	-329.6	-42.35	9.1
0.524	60.255	1426	60.19	60.32	749	97.353	-327.6	-42.14	9.5
0.525	60.350	1425	60.32	60.38	749	44.928	-338.0	-43.23	7.9
0.526	60.425	1424	60.38	60.47	749	67.386	-343.7	-43.92	7.6
0.527	60.520	1423	60.47	60.57	749	74.864	-351.8	-44.98	8.1
0.528	60.605	1422	60.57	60.64	749	52.401	-360.9	-45.95	6.7
0.529	60.680	1421	60.64	60.72	748	59.883	-368.0	-46.71	5.7
0.530	60.755	1420	60.72	60.79	749	52.423	-366.7	-46.62	6.3
0.531	60.835	1419	60.79	60.88	750	67.513	-360.2	-45.98	7.6
0.532	60.920	1418	60.88	60.96	752	60.138	-355.5	-45.43	8.0
0.533	60.990	1417	60.96	61.02	753	45.193	-355.2	-45.35	7.6
0.534	61.075	1416	61.02	61.13	755	83.025	-353.7	-45.24	8.2
0.535	61.175	1415	61.13	61.22	757	68.099	-352.3	-45.09	8.4
0.536	61.265	1414	61.22	61.31	758	68.208	-352.4	-45.06	8.1
0.537	61.350	1413	61.31	61.39	758	60.648	-353.1	-45.08	7.6
0.538	61.430	1412	61.39	61.47	758	60.654	-354.3	-45.27	7.8
0.539	61.520	1411	61.47	61.57	758	75.818	-360.2	-45.91	7.1
0.540	61.625	1410	61.57	61.68	758	83.407	-363.5	-46.30	6.9
0.541	61.725	1409	61.68	61.77	758	68.246	-363.3	-46.15	5.9
0.542	61.810	1408	61.77	61.85	758	60.652	-361.7	-45.75	4.3
0.543	61.885	1407	61.85	61.92	758	53.039	-352.9	-44.76	5.3
0.544	61.975	1406	61.92	62.03	757	83.269	-340.5	-43.41	6.8
0.545	62.065	1405	62.03	62.10	756	52.936	-337.3	-42.97	6.4
0.546	62.135	1404	62.10	62.17	756	52.896	-346.4	-43.94	5.1
0.547	62.205	1403	62.17	62.24	755	52.864	-354.5	-44.97	5.2
0.548	62.305	1402	62.24	62.37	756	98.271	-353.3	-45.24	8.6
0.549	62.395	1401	62.37	62.42	758	37.903	-354.6	-45.31	7.9
0.550	62.460	1400	62.42	62.50	759	60.736	-360.7	-45.92	6.6
0.551	62.535	1399	62.50	62.57	761	53.255	-366.8	-46.59	6.0
0.552	62.620	1398	62.57	62.67	763	76.256	-369.4	-47.06	7.1
0.553	62.720	1397	62.67	62.77	765	76.460	-371.0	-47.34	7.7
0.554	62.805	1396	62.77	62.84	765	53.573	-367.7	-47.07	8.8
0.555	62.880	1395	62.84	62.92	765	61.230	-366.8	-46.94	8.7
0.556	62.950	1394	62.92	62.98	766	45.929	-366.9	-46.88	8.1
0.557	63.020	1393	62.98	63.06	766	61.244	-365.8	-46.79	8.6
0.558	63.095	1392	63.06	63.13	766	53.592	-366.6	-46.79	7.7
0.559	63.165	1391	63.13	63.20	766	53.597	-365.7	-46.52	6.5
0.560	63.225	1390	63.20	63.25	766	38.285	-360.5	-45.87	6.5
0.561	63.300	1389	63.25	63.35	766	76.572	-353.3	-44.95	6.3
0.562	63.390	1388	63.35	63.43	766	61.258	-352.1	-44.79	6.2
0.563	63.495	1387	63.43	63.56	766	99.540	-351.4	-44.69	6.1
0.564	63.605	1386	63.56	63.65	766	68.910	-352.3	-44.86	6.6
0.565	63.700	1385	63.65	63.75	765	76.536	-360.4	-45.71	5.3
0.566	63.790	1384	63.75	63.83	765	61.176	-362.9	-45.98	4.9
0.567	63.855	1383	63.83	63.88	764	38.207	-359.0	-45.58	5.7
0.568	63.930	1382	63.88	63.98	764	76.354	-350.8	-44.75	7.2
0.569	64.035	1381	63.98	64.09	763	83.894	-342.1	-43.88	9.0
0.570	64.140	1380	64.09	64.19	762	76.189	-343.3	-43.87	7.7
0.571	64.240	1379	64.19	64.29	761	76.133	-343.0	-43.99	8.9
0.572	64.315	1378	64.29	64.34	764	38.175	-344.4	-44.28	9.8
0.573	64.405	1377	64.34	64.47	768	99.784	-346.8	-44.51	9.3
0.574	64.520	1376	64.47	64.57	772	77.235	-351.8	-45.03	8.4
0.575	64.605	1375	64.57	64.64	776	54.337	-362.1	-46.04	6.2
0.576	64.670	1374	64.64	64.70	779	46.747	-364.9	-46.49	7.0
0.577	64.735	1373	64.70	64.77	780	54.565	-366.5	-46.89	8.6
0.578	64.800	1372	64.77	64.83	778	46.695	-372.1	-47.45	7.5
0.579	64.885	1371	64.83	64.94	776	85.409	-374.3	-47.60	6.5
0.580	64.980	1370	64.94	65.02	774	61.949	-368.6	-47.06	7.9
0.581	65.060	1369	65.02	65.10	773	61.821	-364.4	-46.61	8.5
0.582	65.145	1368	65.10	65.19	771	69.394	-359.4	-45.95	8.2
0.583	65.255	1367	65.19	65.32	769	99.964	-357.3	-45.76	8.8
0.584	65.355	1366	65.32	65.39	769	53.802	-363.4	-46.34	7.3
0.585	65.435	1365	65.39	65.48	769	69.173	-361.1	-46.17	8.3
0.586	65.535	1364	65.48	65.59	768	84.528	-358.7	-45.91	8.6
0.587	65.650	1363	65.59	65.71	768	92.212	-362.6	-46.22	8.9
0.588	65.755	1362	65.71	65.80	768	69.156	-369.1	-46.96	7.1
0.589	65.835	1361	65.80	65.87	768	53.787	-362.7	-46.22	7.1
0.590	65.885	1360	65.87	65.90	768	23.052	-356.8	-45.53	7.5
0.591	65.970	1359	65.90	66.04	768	107.589	-335.2	-43.14	9.9
0.592	66.070	1358	66.04	66.10	769	46.112	-336.0	-43.05	8.4
0.593	66.130	1357	66.10	66.16	769	46.121	-344.7	-44.06	7.7
0.594	66.200	1356	66.16	66.24	769	61.489	-350.3	-44.69	7.2
0.595	66.295	1355	66.24	66.35	769	84.554	-347.2	-44.47	8.6
0.596	66.395	1354	66.35	66.44	769	69.181	-344.4		
0.597	66.485	1353	66.44	66.53	769	69.173	-356.7	-45.79	7.2
0.598	66.570	1352	66.53	66.61	769	61.488	-370.4	-47.15	6.9
0.599	66.650	1351	66.61	66.69	769	61.486	-369.4	-47.41	9.8
0.600	66.745	1350	66.69	66.80	768	84.536	-362.4	-46.41	8.9
0.601	66.845	1349	66.80	66.89	768	69.146	-356.8	-45.56	7.7
0.602	66.930	1348	66.89	66.97	768	61.453	-357.9	-45.58	6.7
0.603	67.000	1347	66.97	67.03	768	46.079	-360.3	-45.86	6.6
0.604	67.055	1346	67.03	67.08	768	38.397	-361.4	-46.09	7.3
0.605	67.125	1345	67.08	67.17	768	69.095	-361.1	-46.12	7.9
0.606	67.205	1344	67.17	67.24	768	53.731	-363.1	-46.27	7.0
0.607	67.280	1343	67.24	67.32	767	61.396	-361.5	-46.30	8.9
0.608	67.370	1342	67.32	67.42	767	76.727	-355.6	-45.73	10.2
0.609	67.465	1341	67.42	67.51	769	69.179	-354.9	-45.54	9.4
0.610	67.545	1340	67.51	67.58	771	53.957	-354.4	-45.28	7.8
0.611	67.600	1339	67.58	67.62	773	30.903	-348.3	-44.64	8.8
0.612	67.650	1338	67.62	67.68	774	46.409	-345.9	-44.31	8.6
0.613	67.730	1337	67.68	67.78	776	77.557	-343.9	-43.94	7.6
0.614	67.815	1336	67.78	67.85	776	54.329	-343.9	-43.88	7.1
0.615	67.880	1335	67.85	67.91	776	46.543	-343.7	-44.05	8.7
0.616	67.945	1334	67.91	67.98	775	54.263	-345.2	-44.29	9.1
0.617	68.015	1333	67.98	68.05	775	54.226	-350.5	-44.94	9.0
0.618	68.100	1332	68.05	68.15	774	77.404	-355.1	-45.64	10.0
0.619	68.190	1331	68.15	68.23	773	61.868	-355.7	-45.74	10.2
0.620	68.280	1330	68.23	68.33	773	77.266	-354.4	-45.64	10.6
0.621	68.375	1329	68.33	68.42	772	69.509	-358.3	-45.96	9.3
0.622	68.460	1328	68.42	68.50	773	61.830	-356.7	-45.55	7.7
0.623	68.530	1327	68.50	68.56	773	46.396	-349.3	-44.81	9.2
0.624	68.605	1326	68.56	68.65	774	69.652	-343.9	-44.25	10.1
0.625	68.680	1325	68.65	68.71	774	46.458	-345.5	-44.41	9.8
0.626	68.740	1324	68.71	68.77	775	46.482	-352.8	-45.23	9.0
0.627	68.830	1323	68.77	68.89	776	93.128	-367.6	-46.99	8.3
0.628	68.935	1322	68.89	68.98	778	70.002	-368.5	-47.08	8.2
0.629	69.030	1321	68.98	69.08	780	77.966	-355.9	-45.68	9.5
0.630	69.125	1320	69.08	69.17	781	70.311	-351.6	-45.06	8.9
0.631	69.210	1319	69.17	69.25	783	62.623	-354.9	-45.27	7.2
0.632	69.290	1318	69.25	69.33	784	62.724	-354.1	-45.22	7.7
0.633	69.370	1317	69.33	69.41	785	62.814	-341.6	-43.89	9.5
0.634	69.435	1316	69.41	69.46	786	39.294	-338.9	-43.55	9.5
0.635	69.485	1315	69.46	69.51	787	39.335	-344.6	-44.03	7.7
0.636	69.540	1314	69.51	69.57	787	47.234	-347.4	-44.33	7.2
0.637	69.600	1313	69.57	69.63	788	47.279	-348.1	-44.42	7.3
0.638	69.690	1312	69.63	69.75	789	94.701	-345.7	-44.10	7.1
0.639	69.805	1311	69.75	69.86	791	87.003	-343.1	-43.84	7.6
0.640	69.905	1310	69.86	69.95	792	71.303	-343.9	-44.02	8.2
0.641	69.990	1309	69.95	70.03	794	63.484	-350.5	-44.62	6.5
0.642	70.055	1308	70.03	70.08	795	39.734	-353.5	-44.94	6.1
0.643	70.120	1307	70.08	70.16	795	63.596	-354.2	-44.90	5.0
0.644	70.195	1306	70.16	70.23	795	55.621	-353.1	-44.77	5.1
0.645	70.280	1305	70.23	70.33	794	79.391	-352.3	-44.76	5.8
0.646	70.405	1304	70.33	70.48	793	118.934	-359.5	-45.98	8.3
0.647	70.545	1303	70.48	70.61	792	102.930	-364.2	-46.65	9.0
0.648	70.650	1302	70.61	70.69	791	63.273	-364.1	-46.49	7.8
0.649	70.750	1301	70.69	70.81	790	94.820	-358.7	-45.87	8.3
0.650	70.865	1300	70.81	70.92	790	86.902	-365.0	-46.65	8.2
0.651	70.985	1299	70.92	71.05	790	102.708	-368.3	-46.99	7.6
0.652	71.115	1298	71.05	71.18	790	102.704	-362.7	-46.49	9.3
0.653	71.220	1297	71.18	71.26	790	63.200	-355.8	-45.59	8.9
0.654	71.300	1296	71.26	71.34	790	63.179	-359.1	-45.88	7.9
0.655	71.375	1295	71.34	71.41	790	55.278	-364.0	-46.51	8.1
0.656	71.440	1294	71.41	71.47	789	47.364	-371.8	-47.45	7.8
0.657	71.500	1293	71.47	71.53	789	47.355	-377.5	-48.20	8.1
0.658	71.575	1292	71.53	71.62	789	71.022	-377.5	-48.13	7.6
0.659	71.655	1291	71.62	71.69	789	55.222	-365.6	-46.80	8.8
0.660	71.715	1290	71.69	71.74	789	39.432	-356.4	-45.87	10.6
0.661	71.775	1289	71.74	71.81	789	55.201	-356.7	-45.82	9.8
0.662	71.840	1288	71.81	71.87	789	47.325	-358.2	-45.82	8.4
0.663	71.935	1287	71.87	72.00	789	102.583	-354.6	-45.25	7.4
0.664	72.020	1286	72.00	72.04	790	31.582	-349.4	-44.59	7.3
0.665	72.095	1285	72.04	72.15	790	86.892	-348.2	-44.32	6.4
0.666	72.215	1284	72.15	72.28	790	102.769	-351.9	-44.78	6.3
0.667	72.320	1283	72.28	72.36	792	63.348	-358.2	-45.78	8.0
0.668	72.390	1282	72.36	72.42	793	47.581	-360.6	-45.92	6.7
0.669	72.470	1281	72.42	72.52	795	79.469	-358.0	-45.69	7.5
0.670	72.560	1280	72.52	72.60	796	63.708	-352.8	-44.92	6.6
0.671	72.635	1279	72.60	72.67	798	55.844	-352.1	-44.82	6.4
0.672	72.715	1278	72.67	72.76	799	71.932	-355.6	-45.19	5.9
0.673	72.805	1277	72.76	72.85	800	72.002	-357.2	-45.55	7.2
0.674	72.900	1276	72.85	72.95	800	80.016	-356.5	-45.42	6.9
0.675	72.985	1275	72.95	73.02	800	56.016	-355.9	-45.35	7.0
0.676	73.045	1274	73.02	73.07	800	40.016	-354.2	-45.30	8.2
0.677	73.105	1273	73.07	73.14	800	56.023	-351.5	-45.07	9.1
0.678	73.200	1272	73.14	73.26	800	96.051	-347.3	-44.52	8.8
0.679	73.285	1271	73.26	73.31	800	40.010	-346.2	-44.79	12.1
0.680	73.350	1270	73.31	73.39	800	63.975	-347.8	-44.68	9.6
0.681	73.430	1269	73.39	73.47	799	63.898	-350.3	-44.71	7.4
0.682	73.500	1268	73.47	73.53	798	47.864	-350.6	-44.80	7.8
0.683	73.560	1267	73.53	73.59	797	47.823	-348.5	-44.50	7.5
0.684	73.645	1266	73.59	73.70	796	87.572	-347.2	-44.26	6.9
0.685	73.740	1265	73.70	73.78	795	63.593	-348.6	-44.47	7.2
0.686	73.800	1264	73.78	73.82	794	31.770	-349.7	-44.71	8.0
0.687	73.855	1263	73.82	73.89	795	55.656	-350.0	-45.06	10.4
0.688	73.925	1262	73.89	73.96	796	55.732	-350.5	-44.86	8.4
0.689	73.985	1261	73.96	74.01	797	39.857	-350.6	-44.75	7.4
0.690	74.045	1260	74.01	74.08	798	55.859	-351.9	-44.96	7.8
0.691	74.115	1259	74.08	74.15	799	55.934	-356.6	-45.54	7.7
0.692	74.180	1258	74.15	74.21	800	47.999	-362.7	-46.17	6.7
0.693	74.240	1257	74.21	74.27	801	48.052	-367.4	-46.88	7.6
0.694	74.315	1256	74.27	74.36	800	72.044	-365.6	-46.58	7.0
0.695	74.400	1255	74.36	74.44	800	63.975	-353.7	-45.48	10.1
0.696	74.490	1254	74.44	74.54	799	79.879	-347.0	-44.55	9.3
0.697	74.595	1253	74.54	74.65	798	87.757			
0.698	74.675	1252	74.65	74.70	797	39.849	-351.1	-45.00	8.9
0.699	74.730	1251	74.70	74.76	796	47.791	-353.3	-45.08	7.4
0.700	74.795	1250	74.76	74.83	797	55.776	-347.4	-44.36	7.5
0.701	74.865	1249	74.83	74.90	797	55.814	-338.0	-43.10	6.8
0.702	74.930	1248	74.90	74.96	798	47.870	-332.9	-42.59	7.8
0.703	74.975	1247	74.96	74.99	798	23.940	-331.7	-42.53	8.5
0.704	75.025	1246	74.99	75.06	799	55.902	-336.0	-43.34	10.7
0.705	75.105	1245	75.06	75.15	799	71.935	-340.6	-43.61	8.3
0.706	75.200	1244	75.15	75.25	800	79.995	-341.6	-43.63	7.5
0.707	75.275	1243	75.25	75.30	801	40.034	-341.3	-43.68	8.1
0.708	75.355	1242	75.30	75.41	802	88.201	-342.7	-43.79	7.6
0.709	75.445	1241	75.41	75.48	804	56.253	-346.3	-44.05	6.1
0.710	75.520	1240	75.48	75.56	805	64.396	-345.5	-44.00	6.5
0.711	75.575	1239	75.56	75.59	806	24.192	-348.6	-44.35	6.2
0.712	75.620	1238	75.59	75.65	807	48.421	-350.6	-44.56	5.8
0.713	75.690	1237	75.65	75.73	808	64.672	-355.5	-45.09	5.3
0.714	75.775	1236	75.73	75.82	809	72.818	-355.8	-45.25	6.2
0.715	75.845	1235	75.82	75.87	808	40.423	-352.9	-45.01	7.2
0.716	75.900	1234	75.87	75.93	808	48.463	-349.9	-44.63	7.1
0.717	75.970	1233	75.93	76.01	807	64.548	-346.0	-43.99	6.0
0.718	76.040	1232	76.01	76.07	806	48.355	-344.1	-43.75	5.9
0.719	76.115	1231	76.07	76.16	805	72.453	-344.3	-43.77	5.9
0.720	76.190	1230	76.16	76.22	804	48.239	-344.0	-43.80	6.4
0.721	76.270	1229	76.22	76.32	803	80.330	-346.6	-44.08	6.0
0.722	76.355	1228	76.32	76.39	803	56.191	-353.1	-45.08	7.6
0.723	76.425	1227	76.39	76.46	802	56.162	-354.9	-45.30	7.5
0.724	76.480	1226	76.46	76.50	802	32.079	-354.4	-45.28	7.8
0.725	76.520	1225	76.50	76.54	802	32.070	-353.3	-45.21	8.3
0.726	76.580	1224	76.54	76.62	801	64.111	-351.2	-45.11	9.6
0.727	76.660	1223	76.62	76.70	801	64.067	-349.9	-45.10	10.9
0.728	76.735	1222	76.70	76.77	801	56.070	-354.1	-45.37	8.9
0.729	76.805	1221	76.77	76.84	802	56.140	-354.9	-45.39	8.2
0.730	76.860	1220	76.84	76.88	803	32.119	-352.2	-45.18	9.3
0.731	76.915	1219	76.88	76.95	804	56.284	-350.4	-45.07	10.2
0.732	76.980	1218	76.95	77.01	805	48.315	-356.0	-45.61	8.8
0.733	77.035	1217	77.01	77.06	806	40.316	-362.0	-46.38	9.0
0.734	77.095	1216	77.06	77.13	807	56.518	-363.5	-46.75	10.5
0.735	77.180	1215	77.13	77.23	809	80.904	-363.2	-46.59	9.5
0.736	77.265	1214	77.23	77.30	811	56.740	-364.3	-46.77	9.8
0.737	77.340	1213	77.30	77.38	812	64.936	-367.8	-47.02	8.3
0.738	77.415	1212	77.38	77.45	812	56.864	-366.5	-46.78	7.8
0.739	77.495	1211	77.45	77.54	813	73.173	-357.1	-45.83	9.6
0.740	77.575	1210	77.54	77.61	814	56.955	-352.2	-45.00	7.7
0.741	77.640	1209	77.61	77.67	814	48.849	-349.9	-44.56	6.6
0.742	77.705	1208	77.67	77.74	815	57.028	-345.2	-44.04	7.0
0.743	77.775	1207	77.74	77.81	815	57.068	-340.5	-43.55	7.9
0.744	77.845	1206	77.81	77.88	816	57.107	-342.5	-43.79	7.8
0.745	77.905	1205	77.88	77.93	816	40.815	-348.4	-44.42	6.9
0.746	77.965	1204	77.93	78.00	817	57.174	-354.9	-45.21	6.8
0.747	78.035	1203	78.00	78.07	817	57.213	-355.3	-45.44	8.2
0.748	78.115	1202	78.07	78.16	818	73.619	-355.2	-45.29	7.1
0.749	78.195	1201	78.16	78.23	818	57.270	-352.5	-44.85	6.3
0.750	78.270	1200	78.23	78.31	818	65.432	-347.9	-44.45	7.6
0.751	78.335	1199	78.31	78.36	818	40.893	-345.6	-44.31	8.9
0.752	78.400	1198	78.36	78.44	818	65.413	-342.7	-43.93	8.7
0.753	78.495	1197	78.44	78.55	817	89.918	-338.7	-43.42	8.6
0.754	78.580	1196	78.55	78.61	817	49.030	-346.8	-44.27	7.4
0.755	78.660	1195	78.61	78.71	817	81.701	-356.5	-45.53	7.7
0.756	78.745	1194	78.71	78.78	817	57.177	-359.0	-45.76	7.1
0.757	78.840	1193	78.78	78.90	817	98.057	-358.1	-45.74	7.8
0.758	78.945	1192	78.90	78.99	819	73.675	-362.8	-46.17	6.5
0.759	79.025	1191	78.99	79.06	820	57.389	-361.4	-45.81	5.1
0.760	79.080	1190	79.06	79.10	821	32.831	-356.0	-45.33	6.6
0.761	79.130	1189	79.10	79.16	822	49.292	-353.5	-45.14	7.6
0.762	79.190	1188	79.16	79.22	822	49.308	-352.7	-44.98	7.1
0.763	79.255	1187	79.22	79.29	822	57.520	-351.9	-44.80	6.5
0.764	79.330	1186	79.29	79.37	821	65.713	-345.0	-44.15	8.2
0.765	79.420	1185	79.37	79.47	821	82.101	-335.8	-43.14	9.3
0.766	79.510	1184	79.47	79.55	821	65.650	-338.6	-43.38	8.4
0.767	79.600	1183	79.55	79.65	820	82.019	-343.8	-43.79	6.6
0.768	79.690	1182	79.65	79.73	820	65.588	-339.5	-43.54	8.9
0.769	79.775	1181	79.73	79.82	820	73.754	-340.0	-43.65	9.2
0.770	79.855	1180	79.82	79.89	820	57.366	-346.7	-44.40	8.5
0.771	79.930	1179	79.89	79.97	820	65.569	-351.5	-44.88	7.6
0.772	80.000	1178	79.97	80.03	820	49.179	-353.3	-44.93	6.1
0.773	80.050	1177	80.03	80.07	820	32.790	-353.9	-45.08	6.8
0.774	80.110	1176	80.07	80.15	820	65.585	-352.7	-45.10	8.1
0.775	80.185	1175	80.15	80.22	820	57.391	-348.1	-44.67	9.3
0.776	80.265	1174	80.22	80.31	820	73.794	-344.2	-44.07	8.4
0.777	80.345	1173	80.31	80.38	820	57.421	-344.8	-43.88	6.3
0.778	80.425	1172	80.38	80.47	821	73.882	-344.8	-43.74	5.1
0.779	80.530	1171	80.47	80.59	822	98.609	-341.0	-43.37	5.9
0.780	80.610	1170	80.59	80.63	822	32.893	-341.8	-43.66	7.6
0.781	80.675	1169	80.63	80.72	823	74.070	-344.5	-44.15	8.7
0.782	80.760	1168	80.72	80.80	823	65.876	-353.6	-45.30	8.8
0.783	80.825	1167	80.80	80.85	824	41.170	-360.8	-46.13	8.2
0.784	80.885	1166	80.85	80.92	823	57.635	-364.9	-46.33	5.7
0.785	80.950	1165	80.92	80.98	823	49.400	-360.5	-45.89	6.6
0.786	81.020	1164	80.98	81.06	823	65.847	-346.1	-44.24	7.9
0.787	81.105	1163	81.06	81.15	823	74.073	-331.2	-42.65	9.9
0.788	81.180	1162	81.15	81.21	823	49.371	-333.5	-42.78	8.8
0.789	81.235	1161	81.21	81.26	823	41.142	-343.6	-43.83	7.0
0.790	81.300	1160	81.26	81.34	822	65.781	-351.1	-44.73	6.7
0.791	81.385	1159	81.34	81.43	821	73.892	-359.2	-45.60	5.7
0.792	81.460	1158	81.43	81.49	820	49.194	-359.1	-45.54	5.2
0.793	81.520	1157	81.49	81.55	819	49.133	-351.6	-44.77	6.6
0.794	81.600	1156	81.55	81.65	818	81.759	-341.7	-43.56	6.8
0.795	81.700	1155	81.65	81.75	816	81.602	-323.4	-41.60	9.4
0.796	81.770	1154	81.75	81.79	815	32.599	-318.8	-41.01	9.3
0.797	81.855	1153	81.79	81.92	814	105.810	-324.2	-41.52	7.9
0.798	81.935	1152	81.92	81.95	816	24.470	-329.6	-42.16	7.7
0.799	81.980	1151	81.95	82.01	818	49.059	-338.1		
0.800	82.045	1150	82.01	82.08	821	57.442	-350.3		
0.801	82.110	1149	82.08	82.14	824	49.416	-355.7	-45.33	6.8
0.802	82.175	1148	82.14	82.21	827	57.869	-355.4	-45.39	7.7
0.803	82.235	1147	82.21	82.26	829	41.450	-357.3	-45.62	7.6
0.804	82.320	1146	82.26	82.38	830	99.607	-360.8	-45.83	5.8
0.805	82.405	1145	82.38	82.43	830	41.499	-356.7	-45.52	7.5
0.806	82.485	1144	82.43	82.54	830	91.277	-355.3	-45.18	6.1
0.807	82.570	1143	82.54	82.60	830	49.776	-348.6	-44.47	7.2
0.808	82.630	1142	82.60	82.66	830	49.776	-341.2	-43.72	8.6
0.809	82.700	1141	82.66	82.74	829	66.347	-336.3	-43.20	9.3
0.810	82.770	1140	82.74	82.80	829	49.764	-339.4	-43.53	8.8
0.811	82.840	1139	82.80	82.88	830	66.352	-348.9	-44.57	7.7
0.812	82.910	1138	82.88	82.94	830	49.781	-354.3	-45.11	6.6
0.813	82.970	1137	82.94	83.00	830	49.782	-350.4	-44.72	7.4
0.814	83.030	1136	83.00	83.06	830	49.792	-343.5	-44.02	8.7
0.815	83.085	1135	83.06	83.11	830	41.504	-343.3	-44.06	9.2
0.816	83.140	1134	83.11	83.17	830	49.806	-345.5	-44.20	8.1
0.817	83.200	1133	83.17	83.23	830	49.827	-348.9	-44.46	6.8
0.818	83.260	1132	83.23	83.29	831	49.848	-351.5	-44.80	6.8
0.819	83.320	1131	83.29	83.35	832	49.886	-355.0	-45.22	6.8
0.820	83.390	1130	83.35	83.43	832	66.579	-355.3	-45.21	6.4
0.821	83.460	1129	83.43	83.49	833	49.972	-351.6	-44.68	5.8
0.822	83.520	1128	83.49	83.55	834	50.019	-348.7	-44.44	6.8
0.823	83.600	1127	83.55	83.65	834	83.432	-348.7	-44.39	6.4
0.824	83.690	1126	83.65	83.73	835	66.824	-349.6	-44.54	6.7
0.825	83.775	1125	83.73	83.82	836	75.250	-350.8	-44.58	5.8
0.826	83.855	1124	83.82	83.89	837	58.592	-351.6	-44.70	6.0
0.827	83.920	1123	83.89	83.95	838	50.264	-352.1	-44.76	6.0
0.828	84.000	1122	83.95	84.05	839	83.868	-353.6	-44.86	5.2
0.829	84.095	1121	84.05	84.14	840	75.572	-350.7	-44.56	5.8
0.830	84.165	1120	84.14	84.19	840	42.029	-343.9	-43.90	7.3
0.831	84.225	1119	84.19	84.26	840	58.825	-339.3	-43.43	8.1
0.832	84.280	1118	84.26	84.30	840	33.600	-336.3	-43.10	8.5
0.833	84.320	1117	84.30	84.34	840	33.588	-335.4	-43.00	8.6
0.834	84.375	1116	84.34	84.41	839	58.763	-336.2	-43.16	9.1
0.835	84.455	1115	84.41	84.50	839	75.491			
0.836	84.530	1114	84.50	84.56	838	50.301	-353.3	-45.04	7.0
0.837	84.595	1113	84.56	84.63	838	58.661	-355.2	-45.30	7.2
0.838	84.660	1112	84.63	84.69	838	50.281	-353.1	-45.05	7.3
0.839	84.735	1111	84.69	84.78	838	75.404	-346.8	-44.36	8.0
0.840	84.835	1110	84.78	84.89	838	92.154	-339.6	-43.53	8.6
0.841	84.925	1109	84.89	84.96	838	58.636	-340.6	-43.52	7.6
0.842	85.000	1108	84.96	85.04	838	67.008	-342.6	-43.71	7.1
0.843	85.060	1107	85.04	85.08	838	33.501	-345.4	-43.99	6.5
0.844	85.105	1106	85.08	85.13	838	41.870	-346.6	-44.08	6.0
0.845	85.175	1105	85.13	85.22	837	75.369	-347.2	-44.16	6.1
0.846	85.235	1104	85.22	85.25	837	25.120	-345.5	-44.09	7.2
0.847	85.290	1103	85.25	85.33	838	67.051	-346.5	-43.86	4.4
0.848	85.375	1102	85.33	85.42	840	75.578	-357.1	-45.18	4.3
0.849	85.455	1101	85.42	85.49	841	58.892	-361.2	-45.80	5.2
0.850	85.555	1100	85.49	85.62	843	109.631	-359.8	-45.55	4.5
0.851	85.645	1099	85.62	85.67	845	42.241	-358.0	-45.18	3.4
0.852	85.695	1098	85.67	85.72	846	42.312	-353.6	-44.57	3.0
0.853	85.740	1097	85.72	85.76	846	33.841	-348.0	-44.00	4.0
0.854	85.800	1096	85.76	85.84	846	67.636	-341.4	-43.22	4.4
0.855	85.865	1095	85.84	85.89	845	42.241	-337.6	-42.70	4.0
0.856	85.945	1094	85.89	86.00	844	92.806	-341.1	-43.17	4.2
0.857	86.040	1093	86.00	86.08	843	67.406	-355.9	-45.16	5.3
0.858	86.110	1092	86.08	86.14	842	50.494	-367.1	-46.63	5.9
0.859	86.185	1091	86.14	86.23	841	75.674	-367.8	-46.54	4.5
0.860	86.270	1090	86.23	86.31	840	67.231	-355.3	-45.21	6.5
0.861	86.340	1089	86.31	86.37	841	50.448	-343.0	-43.88	8.0
0.862	86.405	1088	86.37	86.44	841	58.873	-336.9	-43.07	7.7
0.863	86.460	1087	86.44	86.48	841	33.655	-338.2	-43.07	6.3
0.864	86.520	1086	86.48	86.56	842	67.321	-338.7	-43.04	5.6
0.865	86.590	1085	86.56	86.62	842	50.518	-337.2	-42.87	5.8
0.866	86.645	1084	86.62	86.67	842	42.102	-336.2	-42.79	6.1
0.867	86.700	1083	86.67	86.73	842	50.547	-337.4	-42.88	5.7
0.868	86.775	1082	86.73	86.82	843	75.864	-343.1	-43.39	4.0
0.869	86.855	1081	86.82	86.89	844	59.091	-344.7	-43.65	4.5
0.870	86.905	1080	86.89	86.92	845	25.347	-344.2	-43.72	5.6
0.871	86.950	1079	86.92	86.98	846	50.746	-344.5	-43.71	5.2
0.872	87.010	1078	86.98	87.04	847	50.796	-343.6	-43.71	6.1
0.873	87.070	1077	87.04	87.10	848	50.851	-342.6	-43.66	6.7
0.874	87.135	1076	87.10	87.17	849	59.402	-343.0	-43.65	6.2
0.875	87.195	1075	87.17	87.22	849	42.473	-344.7	-43.95	6.9
0.876	87.245	1074	87.22	87.27	850	42.483	-348.0	-44.33	6.6
0.877	87.280	1073	87.27	87.29	850	16.999	-348.1	-44.34	6.6
0.878	87.320	1072	87.29	87.35	850	50.974	-352.4	-44.85	6.4
0.879	87.385	1071	87.35	87.42	850	59.464	-358.2	-45.38	4.8
0.880	87.470	1070	87.42	87.52	849	84.930	-360.6	-45.53	3.7
0.881	87.570	1069	87.52	87.62	849	84.915	-351.4	-44.60	5.4
0.882	87.655	1068	87.62	87.69	849	59.425	-350.8	-44.57	5.8
0.883	87.715	1067	87.69	87.74	849	42.437	-351.7	-44.79	6.6
0.884	87.765	1066	87.74	87.79	849	42.440	-351.2	-44.88	7.9
0.885	87.820	1065	87.79	87.85	849	50.956	-345.7	-43.96	6.0
0.886	87.895	1064	87.85	87.94	850	76.538	-341.8	-43.50	6.2
0.887	87.965	1063	87.94	87.99	852	42.571	-342.0	-43.32	4.6
0.888	88.030	1062	87.99	88.07	852	68.194	-343.2	-43.58	5.5
0.889	88.105	1061	88.07	88.14	854	59.753	-351.5	-44.54	4.8
0.890	88.175	1060	88.14	88.21	855	59.827	-362.8	-45.85	4.0
0.891	88.240	1059	88.21	88.27	856	51.342	-370.4	-46.74	3.5
0.892	88.295	1058	88.27	88.32	856	42.820	-371.3	-46.83	3.3
0.893	88.360	1057	88.32	88.40	856	68.525	-367.1	-46.36	3.8
0.894	88.440	1056	88.40	88.48	856	68.507	-355.5	-45.07	5.1
0.895	88.500	1055	88.48	88.52	856	34.240	-345.4	-43.93	6.0
0.896	88.555	1054	88.52	88.59	856	59.918	-336.6	-42.87	6.4
0.897	88.625	1053	88.59	88.66	856	59.910	-330.4	-42.08	6.2
0.898	88.700	1052	88.66	88.74	856	68.438	-327.6	-41.83	7.1
0.899	88.770	1051	88.74	88.80	855	51.319	-329.5	-42.11	7.4
0.900	88.835	1050	88.80	88.87	854	59.815	-333.4	-42.55	7.0
0.901	88.895	1049	88.87	88.92	854	42.687	-339.5	-43.22	6.3
0.902	88.955	1048	88.92	88.99	853	59.719	-346.6	-43.88	4.4
0.903	89.030	1047	88.99	89.07	852	68.186	-348.9	-44.12	4.0
0.904	89.120	1046	89.07	89.17	851	85.118	-350.5	-44.36	4.3
0.905	89.215	1045	89.17	89.26	850	76.519	-357.3	-45.09	3.4
0.906	89.295	1044	89.26	89.33	850	59.464	-359.5	-45.30	2.9
0.907	89.370	1043	89.33	89.41	850	67.985	-352.5	-44.59	4.2
0.908	89.445	1042	89.41	89.48	850	59.538	-343.5	-43.56	5.0
0.909	89.520	1041	89.48	89.56	851	68.095	-342.0	-43.42	5.3
0.910	89.605	1040	89.56	89.65	852	76.693	-351.3	-44.61	5.6
0.911	89.690	1039	89.65	89.73	853	68.240	-363.7	-45.99	4.2
0.912	89.755	1038	89.73	89.78	854	42.671	-364.9	-46.23	4.9
0.913	89.800	1037	89.78	89.82	854	34.169	-357.0	-45.34	5.7
0.914	89.850	1036	89.82	89.88	855	51.274	-353.5	-44.90	5.7
0.915	89.915	1035	89.88	89.95	855	59.873	-349.0	-44.32	5.5
0.916	89.970	1034	89.95	89.99	856	34.232	-347.7	-44.14	5.4
0.917	90.005	1033	89.99	90.02	856	25.695	-349.2	-44.17	4.1
0.918	90.045	1032	90.02	90.07	857	42.838	-349.4	-44.21	4.3
0.919	90.085	1031	90.07	90.10	857	25.719	-349.6	-44.37	5.4
0.920	90.120	1030	90.10	90.14	858	34.302	-349.8	-44.36	5.0
0.921	90.175	1029	90.14	90.21	858	60.076	-350.8	-44.35	4.0
0.922	90.235	1028	90.21	90.26	859	42.948	-351.5	-44.45	4.1
0.923	90.280	1027	90.26	90.30	859	34.367	-352.8	-44.59	3.9
0.924	90.315	1026	90.30	90.33	859	25.776	-353.3	-44.64	3.8
0.925	90.355	1025	90.33	90.38	859	42.955	-352.7	-44.72	5.1
0.926	90.405	1024	90.38	90.43	859	42.959	-351.2	-44.63	5.8
0.927	90.460	1023	90.43	90.49	859	51.543	-348.8	-44.40	6.4
0.928	90.515	1022	90.49	90.54	859	42.954	-346.5	-44.17	6.9
0.929	90.565	1021	90.54	90.59	859	42.944	-347.3	-44.36	7.6
0.930	90.615	1020	90.59	90.64	859	42.949	-349.7	-44.67	7.6
0.931	90.665	1019	90.64	90.69	859	42.947	-353.4	-45.08	7.2
0.932	90.715	1018	90.69	90.74	859	42.937	-356.9	-45.39	6.2
0.933	90.770	1017	90.74	90.80	859	51.526	-358.2	-45.50	5.7
0.934	90.825	1016	90.80	90.85	858	42.921	-359.7	-45.57	4.9
0.935	90.875	1015	90.85	90.90	858	42.917	-361.0	-45.61	3.9
0.936	90.925	1014	90.90	90.95	858	42.894	-353.7	-44.86	5.1
0.937	90.975	1013	90.95	91.00	858	42.891	-346.5	-43.93	5.0
0.938	91.025	1012	91.00	91.05	858	42.881	-338.9	-42.99	5.1
0.939	91.075	1011	91.05	91.10	857	42.861	-327.8	-41.74	6.1
0.940	91.120	1010	91.10	91.14	857	34.283	-324.6	-41.33	6.1
0.941	91.165	1009	91.14	91.19	857	42.847	-324.7	-41.35	6.1
0.942	91.215	1008	91.19	91.24	857	42.827	-330.6	-42.13	6.4
0.943	91.265	1007	91.24	91.29	857	42.840	-338.9	-43.24	7.0
0.944	91.315	1006	91.29	91.34	857	42.848	-345.7	-44.05	6.7
0.945	91.365	1005	91.34	91.39	857	42.874	-352.8	-44.87	6.2
0.946	91.415	1004	91.39	91.44	858	42.905	-353.9	-45.28	8.4
0.947	91.460	1003	91.44	91.48	858	34.335	-353.3	-45.09	7.4
0.948	91.505	1002	91.48	91.53	859	42.931	-352.6	-44.87	6.4
0.949	91.555	1001	91.53	91.58	859	42.969	-347.9	-44.18	5.6
0.950	91.605	1000	91.58	91.63	860	42.981	-346.1	-44.07	6.5
0.951	91.655	999	91.63	91.68	860	43.007	-345.5	-44.05	7.0
0.952	91.700	998	91.68	91.72	861	34.425	-348.5	-44.30	5.9
0.953	91.745	997	91.72	91.77	861	43.045	-349.4	-44.38	5.6
0.954	91.795	996	91.77	91.82	861	43.066	-349.6	-44.39	5.5
0.955	91.840	995	91.82	91.86	861	34.456	-346.4	-44.07	6.2
0.956	91.885	994	91.86	91.91	861	43.073	-343.9	-43.79	6.4
0.957	91.935	993	91.91	91.96	862	43.069	-341.4	-43.51	6.6
0.958	91.985	992	91.96	92.01	862	43.079	-340.3	-43.35	6.5
0.959	92.030	991	92.01	92.05	862	34.464	-340.2	-43.50	7.8
0.960	92.075	990	92.05	92.10	862	43.077	-340.1	-43.57	8.5
0.961	92.120	989	92.10	92.14	862	34.469	-339.5	-43.40	7.7
0.962	92.165	988	92.14	92.19	862	43.090	-339.2	-43.33	7.5
0.963	92.215	987	92.19	92.24	862	43.086	-338.9	-43.24	7.0
0.964	92.260	986	92.24	92.28	862	34.481	-340.5	-43.14	4.6
0.965	92.305	985	92.28	92.33	862	43.115	-341.2	-43.19	4.3
0.966	92.355	984	92.33	92.38	862	43.123	-342.1	-43.26	3.9
0.967	92.400	983	92.38	92.42	863	34.523	-344.0	-43.53	4.2
0.968	92.445	982	92.42	92.47	863	43.166	-345.3	-43.74	4.6
0.969	92.490	981	92.47	92.51	864	34.544	-347.1	-44.03	5.1
0.970	92.535	980	92.51	92.56	864	43.196	-346.9	-43.89	4.3
0.971	92.580	979	92.56	92.60	864	34.569	-345.6	-43.72	4.2
0.972	92.625	978	92.60	92.65	865	43.234	-341.3	-43.25	4.7
0.973	92.675	977	92.65	92.70	865	43.247	-337.1	-42.67	4.2
0.974	92.720	976	92.70	92.74	865	34.605	-335.3	-42.43	4.1
0.975	92.765	975	92.74	92.79	864	43.223	-333.0	-42.28	5.2
0.976	92.810	974	92.79	92.83	864	34.557	-335.5	-42.54	4.9
0.977	92.855	973	92.83	92.88	863	43.166	-338.0	-42.81	4.5
0.978	92.900	972	92.88	92.92	862	34.500	-343.8	-43.55	4.6
0.979	92.945	971	92.92	92.97	862	43.109	-345.4	-43.76	4.6
0.980	92.990	970	92.97	93.01	861	34.458	-348.4	-44.13	4.6
0.981	93.035	969	93.01	93.06	861	43.036	-348.8	-44.24	5.1
0.982	93.080	968	93.06	93.10	860	34.418	-349.0	-44.30	5.4
0.983	93.125	967	93.10	93.15	860	42.976	-346.1		
0.984	93.170	966	93.15	93.19	859	34.363	-345.0		
0.985	93.215	965	93.19	93.24	858	42.918	-343.2	-43.63	5.8
0.986	93.260	964	93.24	93.28	858	34.307	-339.9	-43.22	5.9
0.987	93.305	963	93.28	93.33	857	42.866	-338.9	-43.07	5.6
0.988	93.350	962	93.33	93.37	856	34.259	-338.2	-42.82	4.4
0.989	93.395	961	93.37	93.42	857	42.834	-338.3	-42.74	3.6
0.990	93.440	960	93.42	93.46	857	34.284	-338.4	-42.66	2.9
0.991	93.485	959	93.46	93.51	858	42.909	-333.7	-42.09	3.0
0.992	93.530	958	93.51	93.55	859	34.344	-331.1	-41.81	3.4
0.993	93.575	957	93.55	93.60	860	42.972	-325.2	-41.21	4.5
0.994	93.620	956	93.60	93.64	860	34.417	-326.2	-41.43	5.3
0.995	93.665	955	93.64	93.69	861	43.050	-329.7	-41.87	5.3
0.996	93.710	954	93.69	93.73	862	34.474	-339.8	-43.05	4.6
0.997	93.755	953	93.73	93.78	862	43.121	-350.3	-44.34	4.4
0.998	93.800	952	93.78	93.82	863	34.513	-356.0	-45.05	4.4
0.999	93.845	951	93.82	93.87	863	43.131	-361.1	-45.74	4.8
1.000	93.890	950	93.87	93.91	862	34.497	-358.0	-45.51	6.0
1.001	93.935	949	93.91	93.96	862	43.109	-356.5	-45.37	6.5
1.002	93.980	948	93.96	94.00	862	34.483	-356.9	-45.33	5.7
1.003	94.025	947	94.00	94.05	862	43.098	-357.9	-45.32	4.7
1.004	94.070	946	94.05	94.09	862	34.466	-358.4	-45.30	4.0
1.005	94.115	945	94.09	94.14	862	43.079	-352.2	-44.50	3.8
1.006	94.160	944	94.14	94.18	861	34.456	-345.8	-43.84	4.9
1.007	94.200	943	94.18	94.22	861	34.452	-340.6	-43.30	5.8
1.008	94.245	942	94.22	94.27	861	43.063	-337.6	-43.03	6.6
1.009	94.290	941	94.27	94.31	862	34.463	-340.0	-43.29	6.3
1.010	94.335	940	94.31	94.36	862	43.096	-344.6	-43.78	5.6
1.011	94.380	939	94.36	94.40	862	34.493	-353.4	-45.01	6.7
1.012	94.425	938	94.40	94.45	862	43.123	-357.4	-45.39	5.7
1.013	94.470	937	94.45	94.49	863	34.515	-362.8	-45.83	3.8
1.014	94.515	936	94.49	94.54	863	43.165	-362.1	-45.78	4.1
1.015	94.560	935	94.54	94.58	864	34.540	-360.8	-45.66	4.5
1.016	94.605	934	94.58	94.63	864	43.191	-356.2	-45.25	5.8
1.017	94.650	933	94.63	94.67	864	34.570	-355.9	-45.19	5.6
1.018	94.690	932	94.67	94.71	864	34.577	-355.8	-45.16	5.5
1.019	94.735	931	94.71	94.76	865	43.247	-359.9	-45.68	5.5
1.020	94.780	930	94.76	94.80	865	34.603	-361.6	-45.88	5.4
1.021	94.825	929	94.80	94.85	865	43.259	-363.9	-46.14	5.2
1.022	94.870	928	94.85	94.89	865	34.614	-364.1	-46.16	5.2
1.023	94.915	927	94.89	94.94	865	43.271	-363.1	-46.04	5.3
1.024	94.960	926	94.94	94.98	865	34.618	-359.1	-45.59	5.6
1.025	95.000	925	94.98	95.02	866	34.613	-354.7	-45.10	6.0
1.026	95.045	924	95.02	95.07	866	43.278	-349.9	-44.55	6.5
1.027	95.090	923	95.07	95.11	866	34.624	-343.8	-43.74	6.1
1.028	95.135	922	95.11	95.16	866	43.284	-342.8	-43.59	6.0
1.029	95.180	921	95.16	95.20	866	34.622	-341.2	-43.36	5.7
1.030	95.225	920	95.20	95.25	866	43.291	-342.8	-43.61	6.1
1.031	95.270	919	95.25	95.29	866	34.634	-344.1	-43.79	6.2
1.032	95.310	918	95.29	95.33	866	34.638	-349.6	-44.39	5.5
1.033	95.355	917	95.33	95.38	866	43.295	-350.9	-44.50	5.1
1.034	95.400	916	95.38	95.42	866	34.643	-352.6	-44.65	4.6
1.035	95.445	915	95.42	95.47	866	43.311	-351.7	-44.71	6.0
1.036	95.490	914	95.47	95.51	866	34.649	-350.8	-44.59	5.9
1.037	95.535	913	95.51	95.56	866	43.311	-348.5	-44.15	4.7
1.038	95.580	912	95.56	95.60	866	34.657	-344.7	-43.77	5.5
1.039	95.620	911	95.60	95.64	866	34.658	-343.2	-43.63	5.8
1.040	95.665	910	95.64	95.69	866	43.330	-342.3	-43.41	5.0
1.041	95.710	909	95.69	95.73	867	34.665	-342.2	-43.38	4.9
1.042	95.755	908	95.73	95.78	867	43.330	-342.0	-43.34	4.7
1.043	95.800	907	95.78	95.82	867	34.673	-338.4	-43.05	6.0
1.044	95.845	906	95.82	95.87	867	43.347	-336.1	-42.79	6.2
1.045	95.890	905	95.87	95.91	867	34.681	-332.5	-42.37	6.5
1.046	95.930	904	95.91	95.95	867	34.679	-331.6	-42.14	5.5
1.047	95.975	903	95.95	96.00	867	43.363	-332.0	-42.13	5.0
1.048	96.020	902	96.00	96.04	867	34.695	-335.2	-42.48	4.6
1.049	96.065	901	96.04	96.09	868	43.369	-338.4	-42.79	3.9
1.050	96.110	900	96.09	96.13	868	34.702	-340.7	-43.01	3.4
1.051	96.150	899	96.13	96.17	868	34.711	-341.2	-43.22	4.6
1.052	96.195	898	96.17	96.22	868	43.402	-341.4	-43.29	4.9
1.053	96.240	897	96.22	96.26	868	34.736	-341.7	-43.39	5.4
1.054	96.285	896	96.26	96.31	869	43.439	-344.7	-43.72	5.1
1.055	96.330	895	96.31	96.35	869	34.767	-346.0	-43.83	4.7
1.056	96.375	894	96.35	96.40	870	43.484	-347.8	-43.92	3.6
1.057	96.420	893	96.40	96.44	870	34.804	-344.9	-43.72	4.8
1.058	96.460	892	96.44	96.48	870	34.811	-343.8	-43.64	5.3
1.059	96.505	891	96.48	96.53	871	43.539	-341.2	-43.43	6.3
1.060	96.550	890	96.53	96.57	871	34.848	-342.7	-43.53	5.5
1.061	96.595	889	96.57	96.62	872	43.578	-344.5	-43.63	4.5
1.062	96.640	888	96.62	96.66	872	34.885	-347.3	-43.81	3.2
1.063	96.680	887	96.66	96.70	872	34.880	-347.1	-43.81	3.3
1.064	96.725	886	96.70	96.75	872	43.611	-345.8	-43.74	4.1
1.065	96.770	885	96.75	96.79	872	34.882	-347.2	-43.86	3.7
1.066	96.815	884	96.79	96.84	872	43.593	-348.2	-43.96	3.5
1.067	96.860	883	96.84	96.88	872	34.871	-350.4	-44.23	3.4
1.068	96.900	882	96.88	96.92	872	34.868	-350.2	-44.19	3.4
1.069	96.945	881	96.92	96.97	872	43.581	-349.7	-44.13	3.3
1.070	96.990	880	96.97	97.01	871	34.857	-347.4	-43.92	4.0
1.071	97.035	879	97.01	97.06	871	43.562	-347.5	-43.92	3.9
1.072	97.080	878	97.06	97.10	871	34.847	-349.2	-44.03	3.0
1.073	97.120	877	97.10	97.14	871	34.843	-350.7	-44.18	2.7
1.074	97.165	876	97.14	97.19	871	43.551	-352.1	-44.31	2.4
1.075	97.210	875	97.19	97.23	871	34.831	-348.6	-43.95	3.0
1.076	97.255	874	97.23	97.28	871	43.530	-345.4	-43.66	3.9
1.077	97.300	873	97.28	97.32	871	34.823	-340.1	-43.18	5.3
1.078	97.340	872	97.32	97.36	871	34.832	-336.8	-42.85	6.0
1.079	97.385	871	97.36	97.41	871	43.547	-335.3	-42.68	6.1
1.080	97.430	870	97.41	97.45	871	34.840	-334.8	-42.47	5.0
1.081	97.475	869	97.45	97.50	871	43.567	-332.1	-42.47	5.0
1.082	97.520	868	97.50	97.54	871	34.858	-329.5		
1.083	97.560	867	97.54	97.58	872	34.868	-324.8		
1.084	97.605	866	97.58	97.63	872	43.586	-325.1		
1.085	97.650	865	97.63	97.67	872	34.881	-328.1		
1.086	97.695	864	97.67	97.72	872	43.612	-336.3		
1.087	97.740	863	97.72	97.76	872	34.893	-340.8		
1.088	97.780	862	97.76	97.80	873	34.904	-346.6		
1.089	97.825	861	97.80	97.85	873	43.639	-346.3		
1.090	97.870	860	97.85	97.89	873	34.932	-345.8	-43.66	3.5
1.091	97.915	859	97.89	97.94	874	43.695	-347.4		
1.092	97.960	858	97.94	97.98	874	34.967	-348.9		
1.093	98.000	857	97.98	98.02	875	34.982	-352.1	-45.08	8.5
1.094	98.045	856	98.02	98.07	875	43.758	-352.2	-44.99	7.7
1.095	98.090	855	98.07	98.11	875	35.017	-352.3	-44.92	7.1
1.096	98.135	854	98.11	98.16	876	43.808	-347.8	-44.03	4.4
1.097	98.180	853	98.16	98.20	876	35.052	-346.7	-43.97	5.1
1.098	98.220	852	98.20	98.24	877	35.074	-345.4	-43.92	6.0
1.099	98.265	851	98.24	98.29	877	43.871	-342.0	-43.73	7.9
1.100	98.310	850	98.29	98.33	877	35.096	-340.8	-43.65	8.6
1.101	98.355	849	98.33	98.38	876	43.820		-43.52	
1.102	98.400	848	98.38	98.42	876	35.026	-338.7	-43.16	5.1
1.103	98.440	847	98.42	98.46	875	35.008	-338.7	-42.97	5.1
1.104	98.485	846	98.46	98.51	874	43.702	-341.9	-43.31	4.6
1.105	98.530	845	98.51	98.55	873	34.937	-342.6	-43.40	4.6
1.106	98.570	844	98.55	98.59	873	34.896	-343.3	-43.50	4.7
1.107	98.615	843	98.59	98.64	872	43.586	-344.2	-43.66	5.1
1.108	98.660	842	98.64	98.68	871	34.847	-345.0	-43.77	5.2
1.109	98.705	841	98.68	98.73	870	43.499	-349.4	-44.14	3.7
1.110	98.750	840	98.73	98.77	870	34.788	-351.3	-44.38	3.7
1.111	98.790	839	98.77	98.81	870	34.792	-352.9	-44.58	3.7
1.112	98.835	838	98.81	98.86	870	43.514	-349.9	-44.31	4.6
1.113	98.880	837	98.86	98.90	870	34.820	-347.9	-44.14	5.3
1.114	98.925	836	98.90	98.95	871	43.540	-344.3	-43.85	6.5
1.115	98.970	835	98.95	98.99	871	34.853	-344.9	-43.95	6.7
1.116	99.010	834	98.99	99.03	871	34.859	-345.1	-43.98	6.7
1.117	99.055	833	99.03	99.08	872	43.602	-349.0	-44.23	4.9
1.118	99.100	832	99.08	99.12	872	34.892	-349.1	-44.22	4.7
1.119	99.140	831	99.12	99.16	873	34.903	-349.0	-44.20	4.6
1.120	99.185	830	99.16	99.21	873	43.645	-346.7	-43.88	4.3
1.121	99.230	829	99.21	99.25	873	34.930	-345.3	-43.70	4.3
1.122	99.275	828	99.25	99.30	874	43.687	-342.2	-43.35	4.6
1.123	99.320	827	99.30	99.34	874	34.956	-339.8	-43.21	5.9
1.124	99.360	826	99.34	99.38	874	34.970	-338.5	-43.14	6.6
1.125	99.405	825	99.38	99.43	875	43.738	-338.8	-42.97	4.9
1.126	99.450	824	99.43	99.47	875	34.997	-339.5	-43.05	4.9
1.127	99.490	823	99.47	99.51	875	35.008	-340.7	-43.22	5.1
1.128	99.535	822	99.51	99.56	876	43.769	-340.2	-43.24	5.7
1.129	99.580	821	99.56	99.60	876	35.026	-339.6	-43.21	6.1
1.130	99.625	820	99.60	99.65	876	43.804	-334.7	-42.69	6.8
1.131	99.670	819	99.65	99.69	876	35.051	-334.7	-42.36	6.8
1.132	99.710	818	99.69	99.73	876	35.059		-42.06	
1.133	99.755	817	99.73	99.78	877	43.825		-42.02	
1.134	99.800	816	99.78	99.82	877	35.063		-42.13	
1.135	99.840	815	99.82	99.86	876	35.056	-333.8	-42.53	6.4
1.136	99.885	814	99.86	99.91	876	43.816	-334.8	-42.61	6.0
1.137	99.930	813	99.91	99.95	876	35.041	-335.7	-42.67	5.7
1.138	99.975	812	99.95	100.00	876	43.801		-43.39	
1.139	100.020	811	100.00	100.04	876	35.036		-43.58	
1.140	100.060	810	100.04	100.08	876	35.030	-345.0	-43.83	5.6
1.141	100.105	809	100.08	100.13	876	43.776	-348.6	-44.13	4.4
1.142	100.150	808	100.13	100.17	876	35.021	-350.5	-44.29	3.9
1.143	100.190	807	100.17	100.21	875	35.013	-348.6	-44.23	5.2
1.144	100.235	806	100.21	100.26	875	43.764	-347.5	-44.15	5.7
1.145	100.280	805	100.26	100.30	875	35.005	-345.8	-44.02	6.4
1.146	100.325	804	100.30	100.35	875	43.743	-343.9	-43.75	6.0
1.147	100.370	803	100.35	100.39	875	34.995	-343.3	-43.64	5.9
1.148	100.410	802	100.39	100.43	875	34.988	-342.6	-43.50	5.4
1.149	100.455	801	100.43	100.48	875	43.732	-342.8	-43.53	5.5
1.150	100.500	800	100.48	100.52	874	34.974	-342.9	-43.56	5.6
1.151	100.540	799	100.52	100.56	874	34.973	-344.0	-43.53	4.2
1.152	100.585	798	100.56	100.61	874	43.715	-343.8	-43.50	4.2
1.153	100.630	797	100.61	100.65	874	34.963	-340.9	-43.37	6.1
1.154	100.670	796	100.65	100.69	874	34.961	-340.3	-43.32	6.2
1.155	100.715	795	100.69	100.74	874	43.687	-337.7	-43.06	6.8
1.156	100.760	794	100.74	100.78	874	34.951	-336.8	-42.93	6.7
1.157	100.805	793	100.78	100.83	874	43.687	-335.7	-42.79	6.6
1.158	100.850	792	100.83	100.87	874	34.955	-335.9	-42.91	7.4
1.159	100.890	791	100.87	100.91	874	34.958	-335.9	-42.95	7.7
1.160	100.935	790	100.91	100.96	874	43.701		-43.73	
1.161	100.980	789	100.96	101.00	874	34.967		-43.91	
1.162	101.020	788	101.00	101.04	874	34.975	-348.3	-44.13	4.7
1.163	101.065	787	101.04	101.09	874	43.718	-348.5	-44.17	4.8
1.164	101.110	786	101.09	101.13	875	34.984	-349.1	-44.25	4.9
1.165	101.150	785	101.13	101.17	875	34.988	-347.8	-44.09	4.9
1.166	101.195	784	101.17	101.22	875	43.744	-346.1	-43.88	4.9
1.167	101.240	783	101.22	101.26	875	35.004	-344.4	-43.78	5.9
1.168	101.280	782	101.26	101.30	875	35.009	-343.6	-43.74	6.3
1.169	101.325	781	101.30	101.35	876	43.774	-342.6	-43.60	6.2
1.170	101.370	780	101.35	101.39	876	35.027	-342.3	-43.57	6.2
1.171	101.415	779	101.39	101.44	876	43.807	-340.3	-43.41	7.0
1.172	101.460	778	101.44	101.48	876	35.050	-339.8	-43.32	6.8
1.173	101.500	777	101.48	101.52	876	35.055	-338.8	-43.14	6.3
1.174	101.545	776	101.52	101.57	877	43.838	-342.7	-43.54	5.6
1.175	101.590	775	101.57	101.61	877	35.078	-346.9	-43.97	4.9
1.176	101.630	774	101.61	101.65	877	35.083	-353.4	-44.68	4.1
1.177	101.675	773	101.65	101.70	877	43.848	-352.8	-44.62	4.2
1.178	101.720	772	101.70	101.74	877	35.081	-351.5	-44.48	4.3
1.179	101.760	771	101.74	101.78	877	35.080	-340.8	-43.20	4.8
1.180	101.805	770	101.78	101.83	877	43.851	-334.9	-42.56	5.6
1.181	101.850	769	101.83	101.87	877	35.078	-327.7	-41.82	6.9
1.182	101.890	768	101.87	101.91	877	35.077	-323.0	-41.10	5.7
1.183	101.935	767	101.91	101.96	877	43.840	-321.9	-40.90	5.3
1.184	101.980	766	101.96	102.00	877	35.075	-322.4	-40.91	4.9
1.185	102.025	765	102.00	102.05	877	43.844	-325.6	-41.24	4.3
1.186	102.070	764	102.05	102.09	877	35.067	-327.2	-41.42	4.2
1.187	102.110	763	102.09	102.13	877	35.072	-328.8	-41.63	4.2
1.188	102.155	762	102.13	102.18	877	43.841	-325.1	-41.28	5.2
1.189	102.200	761	102.18	102.22	877	35.070	-323.6	-41.14	5.5
1.190	102.240	760	102.22	102.26	877	35.069	-324.8	-41.24	5.1
1.191	102.285	759	102.26	102.31	877	43.830	-329.8	-41.80	4.7
1.192	102.330	758	102.31	102.35	877	35.067	-333.6	-42.25	4.4
1.193	102.370	757	102.35	102.39	877	35.066	-340.3	-43.12	4.7
1.194	102.415	756	102.39	102.44	877	43.833	-340.2	-43.19	5.3
1.195	102.460	755	102.44	102.48	877	35.065	-340.2	-43.24	5.7
1.196	102.500	754	102.48	102.52	877	35.071	-340.5	-43.16	4.8
1.197	102.545	753	102.52	102.57	877	43.873	-345.0	-43.73	4.8
1.198	102.590	752	102.57	102.61	878	35.117	-349.8	-44.34	4.9
1.199	102.630	751	102.61	102.65	879	35.146	-347.8	-43.98	4.1
1.200	102.675	750	102.65	102.70	879	43.945	-346.8	-43.81	3.7
1.201	102.720	749	102.70	102.74	880	35.198	-340.2	-43.00	3.8
1.202	102.760	748	102.74	102.78	880	35.199	-339.9	-42.97	3.8
1.203	102.805	747	102.78	102.83	880	43.996	-335.7	-42.48	4.1
1.204	102.850	746	102.83	102.87	880	35.194	-336.1	-42.52	4.0
1.205	102.890	745	102.87	102.91	880	35.192	-336.9	-42.59	3.8
1.206	102.935	744	102.91	102.96	880	43.982	-338.6	-42.81	3.9
1.207	102.980	743	102.96	103.00	880	35.188	-340.2	-43.01	3.9
1.208	103.020	742	103.00	103.04	880	35.185	-342.2	-43.19	3.3
1.209	103.065	741	103.04	103.09	880	43.975	-343.1	-43.27	3.1
1.210	103.110	740	103.09	103.13	880	35.180	-338.9	-42.96	4.8
1.211	103.150	739	103.13	103.17	880	35.180	-338.1	-42.85	4.8
1.212	103.195	738	103.17	103.22	879	43.972	-327.8	-41.56	4.7
1.213	103.240	737	103.22	103.26	879	35.175	-326.8	-41.45	4.9
1.214	103.285	736	103.26	103.31	879	43.961	-325.1	-41.28	5.1
1.215	103.330	735	103.31	103.35	879	35.170	-326.0	-41.30	4.4
1.216	103.370	734	103.35	103.39	879	35.169	-326.4	-41.31	4.1
1.217	103.415	733	103.39	103.44	880	43.977	-331.8	-41.93	3.6
1.218	103.460	732	103.44	103.48	880	35.184	-333.4	-42.12	3.5
1.219	103.500	731	103.48	103.52	880	35.191	-339.1	-42.78	3.1
1.220	103.545	730	103.52	103.57	880	44.004	-339.6	-42.86	3.3
1.221	103.590	729	103.57	103.61	880	35.212	-340.8	-43.08	3.8
1.222	103.630	728	103.61	103.65	880	35.219	-340.9	-43.11	4.0
1.223	103.675	727	103.65	103.70	881	44.026	-340.9	-43.12	4.1
1.224	103.720	726	103.70	103.74	881	35.233	-339.4	-42.87	3.6
1.225	103.760	725	103.74	103.78	881	35.234	-339.5	-42.90	3.7
1.226	103.805	724	103.78	103.83	881	44.046	-339.7	-42.99	4.2
1.227	103.850	723	103.83	103.87	881	35.237	-344.7	-43.42	2.6
1.228	103.890	722	103.87	103.91	881	35.237	-346.6	-43.58	2.0
1.229	103.935	721	103.91	103.96	881	44.044	-348.4	-43.97	3.4
1.230	103.980	720	103.96	104.00	881	35.240	-347.3	-43.86	3.6
1.231	104.020	719	104.00	104.04	881	35.241	-345.4	-43.65	3.8
1.232	104.065	718	104.04	104.09	881	44.048	-340.6	-43.13	4.4
1.233	104.110	717	104.09	104.13	881	35.243	-338.3	-42.87	4.7
1.234	104.150	716	104.13	104.17	881	35.245	-337.2	-42.75	4.8
1.235	104.195	715	104.17	104.22	881	44.059	-338.2	-42.86	4.7
1.236	104.240	714	104.22	104.26	881	35.247	-339.5	-43.01	4.6
1.237	104.280	713	104.26	104.30	882	35.259	-343.9	-43.44	3.6
1.238	104.325	712	104.30	104.35	882	44.081	-346.2	-43.68	3.2
1.239	104.370	711	104.35	104.39	882	35.294	-350.0	-44.11	2.9
1.240	104.410	710	104.39	104.43	883	35.307	-349.9	-44.10	2.9
1.241	104.455	709	104.43	104.48	883	44.157	-349.8	-44.09	2.9
1.242	104.500	708	104.48	104.52	884	35.344	-343.4	-43.30	3.0
1.243	104.540	707	104.52	104.56	884	35.356	-341.8	-43.12	3.1
1.244	104.585	706	104.56	104.61	884	44.220	-334.0	-42.33	4.6
1.245	104.630	705	104.61	104.65	884	35.371	-333.9	-42.34	4.8
1.246	104.670	704	104.65	104.69	884	35.368	-333.9	-42.35	4.9
1.247	104.710	703	104.69	104.73	884	35.362	-338.9	-42.92	4.5
1.248	104.755	702	104.73	104.78	884	44.194	-341.7	-43.27	4.4
1.249	104.800	701	104.78	104.82	884	35.354	-347.5	-44.00	4.5
1.250	104.840	700	104.82	104.86	884	35.350	-350.0	-44.33	4.6
1.251	104.885	699	104.86	104.91	884	44.185	-352.8	-44.69	4.7
1.252	104.930	698	104.91	104.95	884	35.333	-353.0	-44.70	4.6
1.253	104.970	697	104.95	104.99	883	35.339	-352.7	-44.67	4.7
1.254	105.015	696	104.99	105.04	883	44.167	-350.9	-44.49	5.0
1.255	105.060	695	105.04	105.08	883	35.328	-350.0	-44.29	4.3
1.256	105.100	694	105.08	105.12	883	35.326	-349.4	-44.16	3.9
1.257	105.145	693	105.12	105.17	883	44.144	-350.4	-44.30	3.9
1.258	105.190	692	105.17	105.21	883	35.317	-350.9	-44.35	3.8
1.259	105.230	691	105.21	105.25	883	35.311	-351.8	-44.42	3.6
1.260	105.275	690	105.25	105.30	883	44.136	-349.8	-44.22	4.0
1.261	105.320	689	105.30	105.34	883	35.298	-348.4	-44.09	4.3
1.262	105.360	688	105.34	105.38	882	35.297	-343.5	-43.64	5.6
1.263	105.405	687	105.38	105.43	882	44.120	-342.0	-43.46	5.7
1.264	105.450	686	105.43	105.47	882	35.290	-339.3	-43.13	5.7
1.265	105.490	685	105.47	105.51	882	35.286	-336.8	-42.78	5.4
1.266	105.535	684	105.51	105.56	882	44.098	-335.5	-42.57	5.2
1.267	105.580	683	105.56	105.60	882	35.276		-42.37	
1.268	105.620	682	105.60	105.64	882	35.274		-42.43	
1.269	105.665	681	105.64	105.69	882	44.088	-333.1	-42.54	7.2
1.270	105.710	680	105.69	105.73	882	35.263	-336.2	-42.79	6.1
1.271	105.750	679	105.73	105.77	882	35.255	-337.1	-42.86	5.8
1.272	105.795	678	105.77	105.82	881	44.070	-340.0	-43.12	5.0
1.273	105.840	677	105.82	105.86	881	35.251	-339.4	-43.03	4.8
1.274	105.880	676	105.86	105.90	881	35.248	-338.8	-42.92	4.6
1.275	105.925	675	105.90	105.95	881	44.048	-334.4	-42.44	5.2
1.276	105.970	674	105.95	105.99	881	35.240	-332.2	-42.18	5.2
1.277	106.010	673	105.99	106.03	881	35.234	-329.0	-41.67	4.4
1.278	106.050	672	106.03	106.07	881	35.231	-328.3	-41.63	4.8
1.279	106.095	671	106.07	106.12	881	44.035	-326.9	-41.56	5.6
1.280	106.140	670	106.12	106.16	880	35.221	-326.9	-41.61	6.0
1.281	106.180	669	106.16	106.20	880	35.213	-327.0	-41.62	6.0
1.282	106.225	668	106.20	106.25	880	44.017	-328.9	-41.67	4.5
1.283	106.270	667	106.25	106.29	880	35.209	-328.5	-41.65	4.7
1.284	106.310	666	106.29	106.33	880	35.205	-328.2	-41.63	4.8
1.285	106.355	665	106.33	106.38	880	43.995	-324.9	-41.13	4.1
1.286	106.400	664	106.38	106.42	880	35.197	-324.0	-41.08	3.9
1.287	106.440	663	106.42	106.46	880	35.191		-41.52	
1.288	106.485	662	106.46	106.51	880	43.986	-323.9	-41.30	4.8
1.289	106.530	661	106.51	106.55	880	35.184	-323.9	-41.09	4.8
1.290	106.570	660	106.55	106.59	879	35.171	-331.2	-42.02	5.0
1.291	106.615	659	106.59	106.64	879	43.971	-334.4	-42.40	4.8
1.292	106.660	658	106.64	106.68	879	35.170	-339.8	-42.99	4.1
1.293	106.700	657	106.68	106.72	879	35.166	-341.4	-43.24	4.5
1.294	106.745	656	106.72	106.77	879	43.949	-342.8	-43.46	4.9
1.295	106.790	655	106.77	106.81	879	35.156	-346.3	-43.91	5.0
1.296	106.830	654	106.81	106.85	879	35.154	-347.1	-43.99	4.8
1.297	106.870	653	106.85	106.89	879	35.149	-349.9	-44.28	4.3
1.298	106.915	652	106.89	106.94	879	43.958	-350.8	-44.43	4.6
1.299	106.960	651	106.94	106.98	880	35.179	-351.6	-44.55	4.8
1.300	107.000	650	106.98	107.02	881	35.221	-355.6	-45.02	4.6
1.301	107.045	649	107.02	107.07	881	44.062	-357.1	-45.17	4.3
1.302	107.090	648	107.07	107.11	882	35.287	-360.0	-45.44	3.5
1.303	107.130	647	107.11	107.15	883	35.318	-358.8	-45.31	3.6
1.304	107.175	646	107.15	107.20	884	44.172	-357.8	-45.20	3.7
1.305	107.220	645	107.20	107.24	884	35.365	-349.4	-44.53	6.8
1.306	107.260	644	107.24	107.28	884	35.369	-347.7	-44.35	7.2
1.307	107.305	643	107.28	107.33	884	44.228	-342.5	-43.83	8.1
1.308	107.350	642	107.33	107.37	885	35.393	-338.6	-43.37	8.4
1.309	107.390	641	107.37	107.41	885	35.397	-337.1	-43.20	8.5
1.310	107.430	640	107.41	107.45	885	35.405	-338.3	-43.22	7.4
1.311	107.475	639	107.45	107.50	885	44.274	-339.5	-43.29	6.9
1.312	107.520	638	107.50	107.54	886	35.429	-341.7	-43.45	5.9
1.313	107.560	637	107.54	107.58	886	35.439	-342.7	-43.50	5.3
1.314	107.605	636	107.58	107.63	886	44.303	-343.2	-43.50	4.9
1.315	107.650	635	107.63	107.67	886	35.461	-339.7	-43.11	5.2
1.316	107.690	634	107.67	107.71	887	35.466	-338.1	-42.96	5.6
1.317	107.735	633	107.71	107.76	887	44.348	-333.8	-42.57	6.8
1.318	107.780	632	107.76	107.80	887	35.486	-334.2	-42.58	6.4
1.319	107.820	631	107.80	107.84	887	35.482	-334.3	-42.58	6.3
1.320	107.860	630	107.84	107.88	887	35.487	-339.5	-43.14	5.6
1.321	107.905	629	107.88	107.93	887	44.360	-342.3	-43.41	5.0
1.322	107.950	628	107.93	107.97	887	35.485	-347.5	-43.92	3.9
1.323	107.990	627	107.97	108.01	887	35.484	-349.4	-44.13	3.7
1.324	108.035	626	108.01	108.06	887	44.348	-350.2	-44.23	3.7
1.325	108.080	625	108.06	108.10	887	35.481	-347.6	-44.04	4.7
1.326	108.120	624	108.10	108.14	887	35.480	-345.8	-43.89	5.4
1.327	108.165	623	108.14	108.19	887	44.350	-342.0	-43.59	6.7
1.328	108.210	622	108.19	108.23	887	35.477	-341.5	-43.47	6.3
1.329	108.250	621	108.23	108.27	887	35.470	-341.4	-43.44	6.1
1.330	108.295	620	108.27	108.32	887	44.345	-342.8	-43.64	6.3
1.331	108.340	619	108.32	108.36	887	35.473	-343.0	-43.63	6.1
1.332	108.380	618	108.36	108.40	887	35.472	-343.2	-43.62	5.8
1.333	108.420	617	108.40	108.44	887	35.471	-343.6	-43.65	5.6
1.334	108.465	616	108.44	108.49	887	44.332	-343.8	-43.65	5.4
1.335	108.510	615	108.49	108.53	887	35.468	-343.6	-43.48	4.2
1.336	108.550	614	108.53	108.57	887	35.467	-345.4	-43.67	4.0
1.337	108.595	613	108.57	108.62	887	44.334	-348.7	-44.02	3.5
1.338	108.640	612	108.62	108.66	887	35.464	-345.0	-43.73	4.9
1.339	108.680	611	108.66	108.70	887	35.457	-343.9	-43.61	5.0
1.340	108.720	610	108.70	108.74	886	35.462	-341.2	-43.27	5.0
1.341	108.765	609	108.74	108.79	886	44.327	-340.1	-43.24	5.8
1.342	108.810	608	108.79	108.83	886	35.460	-339.7	-43.25	6.3
1.343	108.850	607	108.83	108.87	886	35.458	-341.4	-43.38	5.6
1.344	108.895	606	108.87	108.92	886	44.316	-343.8	-43.59	4.9
1.345	108.940	605	108.92	108.96	886	35.456	-345.9	-43.76	4.2
1.346	108.980	604	108.96	109.00	886	35.454	-346.4	-44.13	6.7
1.347	109.025	603	109.00	109.05	886	44.318	-349.0	-44.32	5.6
1.348	109.070	602	109.05	109.09	886	35.445	-352.2	-44.54	4.1
1.349	109.110	601	109.09	109.13	886	35.450	-352.6	-44.72	5.1
1.350	109.150	600	109.13	109.17	886	35.449	-352.8	-44.76	5.3
1.351	109.195	599	109.17	109.22	886	44.311	-353.1	-44.82	5.5
1.352	109.240	598	109.22	109.26	886	35.446	-353.5	-44.89	5.6
1.353	109.280	597	109.26	109.30	886	35.446	-353.6	-44.91	5.7
1.354	109.325	596	109.30	109.35	886	44.300	-351.1	-44.73	6.7
1.355	109.370	595	109.35	109.39	886	35.443	-350.6	-44.54	5.7
1.356	109.410	594	109.39	109.43	886	35.442	-350.3	-44.41	5.0
1.357	109.450	593	109.43	109.47	886	35.440	-349.9	-44.45	5.6
1.358	109.495	592	109.47	109.52	886	44.294	-348.9	-44.37	6.1
1.359	109.540	591	109.52	109.56	886	35.438	-347.2	-44.25	6.8
1.360	109.580	590	109.56	109.60	886	35.436	-347.5	-44.17	5.8
1.361	109.625	589	109.60	109.65	886	44.296	-347.6	-44.13	5.4
1.362	109.670	588	109.65	109.69	886	35.434	-347.3	-44.09	5.4
1.363	109.710	587	109.69	109.73	886	35.433	-345.5	-43.93	5.9
1.364	109.755	586	109.73	109.78	886	44.284	-342.9	-43.70	6.7
1.365	109.800	585	109.78	109.82	886	35.430	-343.1	-43.55	5.3
1.366	109.840	584	109.82	109.86	886	35.430	-343.7	-43.57	4.9
1.367	109.880	583	109.86	109.90	886	35.429	-349.2	-43.97	2.6
1.368	109.925	582	109.90	109.95	886	44.281	-349.1	-43.94	2.4
1.369	109.970	581	109.95	109.99	886	35.429	-348.9	-43.90	2.3
1.370	110.010	580	109.99	110.03	886	35.429	-352.9	-44.44	2.7
1.371	110.055	579	110.03	110.08	886	44.287	-354.9	-44.73	2.9
1.372	110.100	578	110.08	110.12	886	35.428	-358.6	-45.27	3.6
1.373	110.140	577	110.12	110.16	886	35.428	-359.6	-45.38	3.4
1.374	110.180	576	110.16	110.20	886	35.421	-360.6	-45.48	3.2
1.375	110.225	575	110.20	110.25	886	44.286	-352.3	-44.71	5.3
1.376	110.270	574	110.25	110.29	886	35.427	-350.0	-44.19	5.9
1.377	110.310	573	110.29	110.33	886	35.427		-42.98	
1.378	110.355	572	110.33	110.38	886	44.280		-42.51	
1.379	110.400	571	110.38	110.42	886	35.429		-42.08	
1.380	110.440	570	110.42	110.46	886	35.432	-334.0	-42.47	6.2
1.381	110.480	569	110.46	110.50	886	35.433	-334.7	-42.62	6.2
1.382	110.525	568	110.50	110.55	886	44.298	-341.3	-43.41	6.0
1.383	110.570	567	110.55	110.59	886	35.433	-342.6	-43.62	6.4
1.384	110.610	566	110.59	110.63	886	35.441	-343.5	-43.78	6.7
1.385	110.655	565	110.63	110.68	886	44.308	-345.0	-43.82	5.6
1.386	110.700	564	110.68	110.72	886	35.447	-344.7	-43.78	5.6
1.387	110.740	563	110.72	110.76	886	35.450	-342.5	-43.63	6.5
1.388	110.780	562	110.76	110.80	886	35.452	-342.2	-43.57	6.4
1.389	110.825	561	110.80	110.85	886	44.313	-341.7	-43.50	6.3
1.390	110.870	560	110.85	110.89	886	35.458	-340.7	-43.44	6.8
1.391	110.910	559	110.89	110.93	886	35.459	-340.6	-43.42	6.8
1.392	110.955	558	110.93	110.98	887	44.330	-340.3	-43.29	6.0
1.393	111.000	557	110.98	111.02	887	35.459	-341.5	-43.42	5.9
1.394	111.040	556	111.02	111.06	887	35.467	-342.4	-43.52	5.8
1.395	111.080	555	111.06	111.10	887	35.471	-344.0	-43.59	4.7
1.396	111.125	554	111.10	111.15	887	44.342	-344.6	-43.62	4.3
1.397	111.170	553	111.15	111.19	887	35.476	-344.8	-43.67	4.6
1.398	111.210	552	111.19	111.23	887	35.478	-344.7	-43.66	4.5
1.399	111.250	551	111.23	111.27	887	35.474	-344.6	-43.64	4.5
1.400	111.295	550	111.27	111.32	887	44.356	-344.7	-43.52	3.4
1.401	111.340	549	111.32	111.36	887	35.485	-344.5	-43.43	3.0
1.402	111.380	548	111.36	111.40	887	35.489	-340.4	-42.93	3.0
1.403	111.425	547	111.40	111.45	887	44.358	-340.1	-42.82	2.5
1.404	111.470	546	111.45	111.49	887	35.493	-339.6	-42.66	1.7
1.405	111.510	545	111.49	111.53	887	35.496	-337.6	-42.57	2.9
1.406	111.550	544	111.53	111.57	887	35.498	-336.9	-42.54	3.4
1.407	111.595	543	111.57	111.62	888	44.379	-338.4	-42.82	4.1
1.408	111.640	542	111.62	111.66	888	35.504	-339.9	-43.04	4.5
1.409	111.680	541	111.66	111.70	888	35.499	-341.9	-43.36	5.0
1.410	111.725	540	111.70	111.75	888	44.388	-344.3	-43.65	4.9
1.411	111.770	539	111.75	111.79	888	35.511	-345.5	-43.79	4.8
1.412	111.810	538	111.79	111.83	888	35.515	-347.5	-43.96	4.2
1.413	111.850	537	111.83	111.87	888	35.515	-347.3	-43.94	4.2
1.414	111.895	536	111.87	111.92	888	44.391	-346.8	-43.88	4.2
1.415	111.940	535	111.92	111.96	888	35.509	-347.7	-43.96	4.0
1.416	111.980	534	111.96	112.00	888	35.507	-347.9	-43.98	3.9
1.417	112.020	533	112.00	112.04	887	35.497	-349.1	-44.10	3.7
1.418	112.065	532	112.04	112.09	887	44.361	-349.0	-44.08	3.6
1.419	112.110	531	112.09	112.13	887	35.487	-348.8	-44.04	3.5
1.420	112.150	530	112.13	112.17	887	35.480	-343.6	-43.62	5.3
1.421	112.195	529	112.17	112.22	887	44.348	-340.3	-43.33	6.3
1.422	112.240	528	112.22	112.26	887	35.481	-335.9	-42.80	6.5
1.423	112.280	527	112.26	112.30	887	35.482	-336.5	-42.78	5.7
1.424	112.320	526	112.30	112.34	887	35.478	-337.5	-42.73	4.3
1.425	112.365	525	112.34	112.39	887	44.362	-340.8	-43.05	3.6
1.426	112.410	524	112.39	112.43	887	35.490	-342.8	-43.24	3.1
1.427	112.450	523	112.43	112.47	887	35.494	-347.2	-43.74	2.7
1.428	112.495	522	112.47	112.52	887	44.364	-347.4	-43.77	2.8
1.429	112.540	521	112.52	112.56	887	35.498	-347.7	-43.82	2.9
1.430	112.580	520	112.56	112.60	888	35.501	-344.2	-43.47	3.6
1.431	112.620	519	112.60	112.64	888	35.502	-342.7	-43.32	3.9
1.432	112.665	518	112.64	112.69	888	44.385	-333.6	-42.20	4.0
1.433	112.710	517	112.69	112.73	888	35.509	-329.0	-41.73	4.8
1.434	112.750	516	112.73	112.77	888	35.504	-322.9	-41.12	6.1
1.435	112.790	515	112.77	112.81	888	35.514	-324.1	-41.19	5.4
1.436	112.835	514	112.81	112.86	888	44.396	-325.5	-41.31	5.0
1.437	112.880	513	112.86	112.90	888	35.520	-332.4	-42.16	4.9
1.438	112.920	512	112.90	112.94	888	35.521	-334.3	-42.39	4.9
1.439	112.960	511	112.94	112.98	888	35.524	-338.2	-42.88	4.8
1.440	113.005	510	112.98	113.03	888	44.403	-341.1	-43.21	4.6
1.441	113.050	509	113.03	113.07	888	35.529	-342.8	-43.41	4.5
1.442	113.090	508	113.07	113.11	888	35.533	-344.8	-43.62	4.2
1.443	113.135	507	113.11	113.16	888	44.420	-344.2	-43.46	3.5
1.444	113.180	506	113.16	113.20	888	35.530	-343.2	-43.22	2.6
1.445	113.220	505	113.20	113.24	888	35.540	-338.6	-42.97	5.2
1.446	113.260	504	113.24	113.28	888	35.541	-336.9	-42.88	6.1
1.447	113.305	503	113.28	113.33	889	44.434	-335.5	-42.74	6.4
1.448	113.350	502	113.33	113.37	889	35.549	-336.3	-42.83	6.4
1.449	113.390	501	113.37	113.41	889	35.554	-337.6	-42.98	6.2
1.450	113.430	500	113.41	113.45	890	35.574	-338.5	-42.97	5.3
1.451	113.475	499	113.45	113.50	890	44.502	-338.8	-42.93	4.6
1.452	113.520	498	113.50	113.54	891	35.640	-335.6	-42.50	4.4
1.453	113.560	497	113.54	113.58	891	35.654	-335.0	-42.44	4.5
1.454	113.605	496	113.58	113.63	892	44.598	-333.8	-42.31	4.7
1.455	113.650	495	113.63	113.67	892	35.683	-336.4	-42.53	3.9
1.456	113.690	494	113.67	113.71	892	35.683	-337.1	-42.59	3.6
1.457	113.730	493	113.71	113.75	892	35.683	-340.3	-43.00	3.7
1.458	113.775	492	113.75	113.80	892	44.605	-340.0	-43.00	3.9
1.459	113.820	491	113.80	113.84	892	35.676	-339.3	-42.97	4.5
1.460	113.860	490	113.84	113.88	892	35.682	-336.6	-42.72	5.2
1.461	113.900	489	113.88	113.92	892	35.682	-334.9	-42.57	5.7
1.462	113.945	488	113.92	113.97	892	44.604	-335.3	-42.53	4.9
1.463	113.990	487	113.97	114.01	892	35.682	-336.4	-42.61	4.4
1.464	114.030	486	114.01	114.05	892	35.682	-338.8	-42.78	3.4
1.465	114.070	485	114.05	114.09	892	35.675	-338.4	-42.72	3.4
1.466	114.115	484	114.09	114.14	892	44.604	-337.9	-42.66	3.4
1.467	114.160	483	114.14	114.18	892	35.681	-337.4	-42.94	6.1
1.468	114.200	482	114.18	114.22	892	35.681	-338.0	-43.02	6.1
1.469	114.240	481	114.22	114.26	892	35.681	-341.5	-43.34	5.2
1.470	114.285	480	114.26	114.31	892	44.596	-342.9	-43.49	5.0
1.471	114.330	479	114.31	114.35	892	35.681	-344.4	-43.65	4.8
1.472	114.370	478	114.35	114.39	892	35.681	-344.4	-43.63	4.6
1.473	114.415	477	114.39	114.44	892	44.603	-343.9	-43.59	4.8
1.474	114.460	476	114.44	114.48	892	35.681	-342.3	-43.48	5.5
1.475	114.500	475	114.48	114.52	892	35.674	-342.3	-43.48	5.5
1.476	114.540	474	114.52	114.56					
1.477	114.585	473	114.56	114.61					
1.478	114.630	472	114.61	114.65					
1.479	114.670	471	114.65	114.69					
1.480	114.710	470	114.69	114.73					
1.481	114.755	469	114.73	114.78					
1.482	114.800	468	114.78	114.82					
1.483	114.840	467	114.82	114.86					
1.484	114.880	466	114.86	114.90					
1.485	114.925	465	114.90	114.95					
