Age [ka BP]	Depth ice/snow [m]	Age [year AD]	Depth top [m]	Depth bot [m]	d18O H2O [per mil SMOW]	Acc rate ice [kg/m**2/a]
-0.047	0.090000	1997	0.00000	0.18000	-44.04	64.76
-0.046	0.295000	1996	0.18000	0.41000	-44.04	82.75
-0.045	0.585000	1995	0.41000	0.76000	-44.04	125.93
-0.044	0.965000	1994	0.76000	1.17000	-44.30	145.85
-0.043	1.225000	1993	1.17000	1.28000	-47.35	38.53
-0.042	1.350000	1992	1.28000	1.42000	-46.01	49.60
-0.041	1.555000	1991	1.42000	1.69000	-42.73	97.42
-0.040	1.855000	1990	1.69000	2.02000	-40.84	121.56
-0.039	2.215000	1989	2.02000	2.41000	-43.92	142.09
-0.038	2.525000	1988	2.41000	2.64000	-45.08	85.39
-0.037	2.690000	1987	2.64000	2.74000	-45.05	37.56
-0.036	2.820000	1986	2.74000	2.90000	-46.01	60.69
-0.035	3.022500	1985	2.90000	3.14500	-44.01	93.65
-0.034	3.239000	1984	3.14500	3.33300	-45.24	72.64
-0.033	3.389000	1983	3.33300	3.44500	-44.18	44.27
-0.032	3.641000	1982	3.44500	3.83700	-44.47	162.37
-0.031	3.956000	1981	3.83700	4.07500	-43.09	101.09
-0.030	4.170000	1980	4.07500	4.26500	-40.95	80.96
-0.029	4.335000	1979	4.26500	4.40500	-46.45	59.80
-0.028	4.552500	1978	4.40500	4.70000	-47.47	126.41
-0.027	4.779000	1977	4.70000	4.85800	-44.31	67.93
-0.026	4.952000	1976	4.85800	5.04600	-42.88	81.04
-0.025	5.103000	1975	5.04600	5.16000	-43.86	49.25
-0.024	5.200000	1974	5.16000	5.24000	-45.23	34.61
-0.023	5.332000	1973	5.24000	5.42400	-44.21	79.75
-0.022	5.482000	1972	5.42400	5.54000	-43.02	50.39
-0.021	5.598000	1971	5.54000	5.65600	-45.70	50.47
-0.020	5.798000	1970	5.65600	5.94000	-46.34	123.70
-0.019	6.000000	1969	5.94000	6.06000	-46.62	51.93
-0.018	6.140000	1968	6.06000	6.22000	-44.47	68.81
-0.017	6.270000	1967	6.22000	6.32000	-43.51	42.77
-0.016	6.410000	1966	6.32000	6.50000	-45.62	77.43
-0.015	6.592000	1965	6.50000	6.68400	-44.59	81.57
-0.014	6.729000	1964	6.68400	6.77400	-43.58	40.72
-0.013	6.877000	1963	6.77400	6.98000	-44.78	93.38
-0.012	7.078000	1962	6.98000	7.17600	-43.44	87.99
-0.011	7.248000	1961	7.17600	7.32000	-44.25	64.28
-0.010	7.388000	1960	7.32000	7.45600	-44.57	61.24
-0.009	7.517000	1959	7.45600	7.57800	-46.06	55.47
-0.008	7.659000	1958	7.57800	7.74000	-45.29	74.45
-0.007	7.825000	1957	7.74000	7.91000	-47.79	78.83
-0.006	7.970000	1956	7.91000	8.03000	-45.04	55.36
-0.005	8.117500	1955	8.03000	8.20500	-45.41	80.19
-0.004	8.235000	1954	8.20500	8.26500	-47.67	27.34
-0.003	8.345000	1953	8.26500	8.42500	-47.07	73.03
-0.002	8.485000	1952	8.42500	8.54500	-45.41	54.97
-0.001	8.583500	1951	8.54500	8.62200	-45.19	35.37
0.000	8.694000	1950	8.62200	8.76600	-44.97	66.32
0.001	8.813000	1949	8.76600	8.86000	-46.81	43.47
0.002	8.904000	1948	8.86000	8.94800	-45.90	40.88
0.003	9.006000	1947	8.94800	9.06400	-46.57	54.12
0.004	9.107000	1946	9.06400	9.15000	-46.68	40.29
0.005	9.192000	1945	9.15000	9.23400	-46.15	39.52
0.006	9.292000	1944	9.23400	9.35000	-47.22	54.78
0.007	9.396000	1943	9.35000	9.44200	-47.73	43.53
0.008	9.507000	1942	9.44200	9.57200	-46.04	61.57
0.009	9.616000	1941	9.57200	9.66000	-44.31	41.72
0.010	9.695000	1940	9.66000	9.73000	-45.40	33.21
0.011	9.782000	1939	9.73000	9.83400	-44.95	49.35
0.012	9.905000	1938	9.83400	9.97600	-45.41	67.26
0.013	10.081000	1937	9.97600	10.18600	-43.00	99.18
0.014	10.243000	1936	10.18600	10.30000	-43.28	53.82
0.015	10.355000	1935	10.30000	10.41000	-43.92	52.32
0.016	10.475000	1934	10.41000	10.54000	-43.81	62.46
0.017	10.571000	1933	10.54000	10.60200	-45.11	30.04
0.018	10.669000	1932	10.60200	10.73600	-45.38	65.33
0.019	10.784000	1931	10.73600	10.83200	-47.36	47.10
0.020	10.891000	1930	10.83200	10.95000	-47.65	57.78
0.021	11.026000	1929	10.95000	11.10200	-46.52	74.17
0.022	11.157000	1928	11.10200	11.21200	-48.16	53.47
0.023	11.269000	1927	11.21200	11.32600	-49.15	55.33
0.024	11.383000	1926	11.32600	11.44000	-46.43	55.53
0.025	11.530000	1925	11.44000	11.62000	-44.90	88.20
0.026	11.663000	1924	11.62000	11.70600	-45.45	42.34
0.027	11.787000	1923	11.70600	11.86800	-44.74	80.06
0.028	11.917000	1922	11.86800	11.96600	-44.68	48.50
0.029	12.050000	1921	11.96600	12.13400	-46.13	83.27
0.030	12.245000	1920	12.13400	12.35600	-44.56	110.41
0.031	12.410000	1919	12.35600	12.46400	-44.94	54.13
0.032	12.505000	1918	12.46400	12.54600	-44.20	41.31
0.033	12.586000	1917	12.54600	12.62600	-45.03	40.48
0.034	12.682000	1916	12.62600	12.73800	-45.52	56.96
0.035	12.802000	1915	12.73800	12.86600	-44.45	65.30
0.036	12.948000	1914	12.86600	13.03000	-44.30	83.35
0.037	13.085000	1913	13.03000	13.14000	-46.27	55.69
0.038	13.184000	1912	13.14000	13.22800	-47.39	44.42
0.039	13.265000	1911	13.22800	13.30200	-47.04	37.31
0.040	13.340000	1910	13.30200	13.37800	-46.24	38.37
0.041	13.419000	1909	13.37800	13.46000	-45.24	41.50
0.042	13.550000	1908	13.46000	13.64000	-46.51	91.48
0.043	13.678000	1907	13.64000	13.71600	-48.07	38.77
0.044	13.766000	1906	13.71600	13.81600	-46.53	51.16
0.045	13.876000	1905	13.81600	13.93600	-45.24	61.52
0.046	13.973000	1904	13.93600	14.01000	-44.50	38.02
0.047	14.047000	1903	14.01000	14.08400	-44.50	38.07
0.048	14.125000	1902	14.08400	14.16600	-45.13	42.26
0.049	14.238000	1901	14.16600	14.31000	-44.69	74.35
0.050	14.367000	1900	14.31000	14.42400	-46.20	58.88
0.051	14.495000	1899	14.42400	14.56600	-46.98	73.31
0.052	14.620000	1898	14.56600	14.67400	-45.05	55.74
0.053	14.714000	1897	14.67400	14.75400	-44.04	41.28
0.054	14.805000	1896	14.75400	14.85600	-44.08	52.62
0.055	14.932000	1895	14.85600	15.00800	-45.60	78.40
0.056	15.084000	1894	15.00800	15.16000	-45.72	78.38
0.057	15.210000	1893	15.16000	15.26000	-46.71	51.56
0.058	15.316000	1892	15.26000	15.37200	-45.80	57.86
0.059	15.445000	1891	15.37200	15.51800	-44.43	75.71
0.060	15.578500	1890	15.51800	15.63900	-45.10	63.00
0.061	15.697000	1889	15.63900	15.75500	-44.67	60.61
0.062	15.842000	1888	15.75500	15.92900	-44.59	91.23
0.063	15.982000	1887	15.92900	16.03500	-45.83	55.74
0.064	16.104000	1886	16.03500	16.17300	-47.36	72.74
0.065	16.216000	1885	16.17300	16.25900	-48.17	45.44
0.066	16.294000	1884	16.25900	16.32900	-47.49	37.04
0.067	16.408000	1883	16.32900	16.48700	-45.59	83.85
0.068	16.559000	1882	16.48700	16.63100	-46.26	76.72
0.069	16.710000	1881	16.63100	16.78900	-47.30	84.48
0.070	16.838000	1880	16.78900	16.88700	-46.85	52.38
0.071	16.950000	1879	16.88700	17.01300	-46.18	67.17
0.072	17.048000	1878	17.01300	17.08300	-46.16	37.22
0.073	17.140000	1877	17.08300	17.19700	-46.11	60.49
0.074	17.288000	1876	17.19700	17.37900		96.61
0.075	17.419000	1875	17.37900	17.45900	-43.51	42.74
0.076	17.504000	1874	17.45900	17.54900	-44.34	48.28
0.077	17.601500	1873	17.54900	17.65400	-44.79	56.58
0.078	17.732000	1872	17.65400	17.81000	-44.74	84.56
0.079	17.890000	1871	17.81000	17.97000	-44.25	86.67
0.080	18.020000	1870	17.97000	18.07000	-45.93	54.07
0.081	18.104000	1869	18.07000	18.13800	-47.00	36.72
0.082	18.188000	1868	18.13800	18.23800	-46.34	53.94
0.083	18.300000	1867	18.23800	18.36200	-45.32	67.04
0.084	18.409000	1866	18.36200	18.45600	-45.25	51.11
0.085	18.529000	1865	18.45600	18.60200	-44.77	79.95
0.086	18.667000	1864	18.60200	18.73200	-44.62	71.74
0.087	18.800000	1863	18.73200	18.86800	-45.76	75.40
0.088	18.919000	1862	18.86800	18.97000	-43.84	56.44
0.089	19.028000	1861	18.97000	19.08600	-43.06	64.05
0.090	19.119000	1860	19.08600	19.15200	-43.97	36.38
0.091	19.213000	1859	19.15200	19.27400	-44.63	67.14
0.092	19.344000	1858	19.27400	19.41400	-45.80	77.16
0.093	19.454000	1857	19.41400	19.49400	-46.93	44.22
0.094	19.547500	1856	19.49400	19.60100	-48.05	59.28
0.095	19.640000	1855	19.60100	19.67900	-48.85	43.33
0.096	19.723000	1854	19.67900	19.76700	-48.33	48.98
0.097	19.810000	1853	19.76700	19.85300	-47.07	47.94
0.098	19.902000	1852	19.85300	19.95100	-46.13	54.71
0.099	19.985000	1851	19.95100	20.01900	-45.41	38.01
0.100	20.093000	1850	20.01900	20.16700	-43.27	82.85
0.101	20.227000	1849	20.16700	20.28700	-42.05	67.29
0.102	20.331000	1848	20.28700	20.37500	-43.52	49.29
0.103	20.431000	1847	20.37500	20.48700	-44.24	62.59
0.104	20.571000	1846	20.48700	20.65500	-43.36	93.60
0.105	20.717000	1845	20.65500	20.77900	-44.06	68.85
0.106	20.838000	1844	20.77900	20.89700	-44.79	65.68
0.107	20.949000	1843	20.89700	21.00100	-45.32	58.17
0.108	21.050000	1842	21.00100	21.09900	-45.66	55.08
0.109	21.134000	1841	21.09900	21.16900	-45.40	39.49
0.110	21.213000	1840	21.16900	21.25700	-44.54	49.81
0.111	21.327000	1839	21.25700	21.39700	-43.88	79.46
0.112	21.441000	1838	21.39700	21.48500	-44.01	49.97
0.113	21.519000	1837	21.48500	21.55300	-44.16	38.62
0.114	21.617000	1836	21.55300	21.68100	-44.82	72.71
0.115	21.723000	1835	21.68100	21.76500	-44.14	47.73
0.116	21.829000	1834	21.76500	21.89300	-41.68	72.75
0.117	21.961000	1833	21.89300	22.02900	-41.34	77.32
0.118	22.075000	1832	22.02900	22.12100	-43.16	52.31
0.119	22.162000	1831	22.12100	22.20300	-43.74	46.63
0.120	22.243000	1830	22.20300	22.28300	-44.42	45.53
0.121	22.369000	1829	22.28300	22.45500	-44.50	98.06
0.122	22.530500	1828	22.45500	22.60600	-44.82	86.30
0.123	22.656000	1827	22.60600	22.70600	-45.08	57.25
0.124	22.761000	1826	22.70600	22.81600	-44.72	63.06
0.125	22.861000	1825	22.81600	22.90600	-44.27	51.62
0.126	22.958000	1824	22.90600	23.01000	-44.08	59.66
0.127	23.062000	1823	23.01000	23.11400	-44.69	59.67
0.128	23.193000	1822	23.11400	23.27200	-45.63	90.67
0.129	23.319000	1821	23.27200	23.36600	-47.09	53.99
0.130	23.435000	1820	23.36600	23.50400	-45.88	79.38
0.131	23.576500	1819	23.50400	23.64900	-44.13	83.54
0.132	23.691000	1818	23.64900	23.73300	-43.72	48.47
0.133	23.803000	1817	23.73300	23.87300	-44.90	80.91
0.134	23.902000	1816	23.87300	23.93100	-44.81	33.59
0.135	23.981000	1815	23.93100	24.03100	-45.10	58.02
0.136	24.058000	1814	24.03100	24.08500	-45.42	31.38
0.137	24.138000	1813	24.08500	24.19100	-45.02	61.71
0.138	24.243000	1812	24.19100	24.29500	-43.15	60.68
0.139	24.385000	1811	24.29500	24.47500	-43.33	105.08
0.140	24.511000	1810	24.47500	24.54700	-44.52	42.04
0.141	24.584000	1809	24.54700	24.62100	-44.56	43.21
0.142	24.670000	1808	24.62100	24.71900	-44.45	57.24
0.143	24.754000	1807	24.71900	24.78900	-43.64	40.91
0.144	24.840000	1806	24.78900	24.89100	-43.22	59.72
0.145	24.960000	1805	24.89100	25.02900	-44.66	81.01
0.146	25.082000	1804	25.02900	25.13500	-45.78	62.40
0.147	25.200000	1803	25.13500	25.26500	-44.75	76.71
0.148	25.332000	1802	25.26500	25.39900	-43.71	79.26
0.149	25.439000	1801	25.39900	25.47900	-44.30	47.39
0.150	25.545000	1800	25.47900	25.61100	-45.49	78.34
0.151	25.681000	1799	25.61100	25.75100	-44.49	83.24
0.152	25.813000	1798	25.75100	25.87500	-44.33	73.81
0.153	25.935000	1797	25.87500	25.99500	-46.13	71.42
0.154	26.059000	1796	25.99500	26.12300	-46.07	76.17
0.155	26.180000	1795	26.12300	26.23700	-44.97	67.83
0.156	26.320000	1794	26.23700	26.40300	-44.24	98.70
0.157	26.458000	1793	26.40300	26.51300	-44.92	65.33
0.158	26.568000	1792	26.51300	26.62300	-45.47	65.26
0.159	26.656000	1791	26.62300	26.68900	-45.78	39.13
0.160	26.738000	1790	26.68900	26.78700	-46.83	58.06
0.161	26.823000	1789	26.78700	26.85900	-48.30	42.68
0.162	26.912000	1788	26.85900	26.96500	-47.83	62.94
0.163	27.027000	1787	26.96500	27.08900	-46.41	73.78
0.164	27.127000	1786	27.08900	27.16500	-45.34	45.30
0.165	27.225000	1785	27.16500	27.28500	-44.36	71.63
0.166	27.339000	1784	27.28500	27.39300	-44.46	64.54
0.167	27.443000	1783	27.39300	27.49300	-46.16	59.81
0.168	27.572000	1782	27.49300	27.65100	-47.11	94.60
0.169	27.688000	1781	27.65100	27.72500	-47.23	44.35
0.170	27.782000	1780	27.72500	27.83900	-47.10	68.39
0.171	27.891000	1779	27.83900	27.94300	-46.10	62.49
0.172	27.998000	1778	27.94300	28.05300	-45.19	66.19
0.173	28.086000	1777	28.05300	28.11900	-45.05	39.77
0.174	28.166000	1776	28.11900	28.21300	-45.18	56.70
0.175	28.293000	1775	28.21300	28.37300	-45.21	96.66
0.176	28.416000	1774	28.37300	28.45900	-45.29	52.02
0.177	28.504000	1773	28.45900	28.54900	-46.31	54.48
0.178	28.589000	1772	28.54900	28.62900	-46.14	48.46
0.179	28.672000	1771	28.62900	28.71500	-46.66	52.14
0.180	28.776000	1770	28.71500	28.83700	-45.86	74.03
0.181	28.881000	1769	28.83700	28.92500	-44.91	53.45
0.182	28.965000	1768	28.92500	29.00500	-44.84	48.62
0.183	29.055000	1767	29.00500	29.10500	-43.98	60.82
0.184	29.149000	1766	29.10500	29.19300	-42.82	53.57
0.185	29.220000	1765	29.19300	29.24700	-43.79	32.89
0.186	29.305000	1764	29.24700	29.36300	-45.67	70.73
0.187	29.416000	1763	29.36300	29.46900	-45.72	64.74
0.188	29.532500	1762	29.46900	29.59600	-44.79	77.71
0.189	29.631000	1761	29.59600	29.66600	-44.21	42.88
0.190	29.696000	1760	29.66600	29.72600	-43.63	36.80
0.191	29.793000	1759	29.72600	29.86000	-44.13	82.35
0.192	29.915000	1758	29.86000	29.97000	-45.48	67.84
0.193	30.013000	1757	29.97000	30.05600	-45.09	53.18
0.194	30.131000	1756	30.05600	30.20600	-43.66	93.05
0.195	30.256000	1755	30.20600	30.30600	-44.13	62.22
0.196	30.355000	1754	30.30600	30.40400	-44.92	60.79
0.197	30.433000	1753	30.40400	30.46200	-45.42	35.86
0.198	30.504000	1752	30.46200	30.54600	-45.90	51.76
0.199	30.601000	1751	30.54600	30.65600	-45.74	67.50
0.200	30.718000	1750	30.65600	30.78000	-45.06	75.70
0.201	30.843000	1749	30.78000	30.90600	-45.17	76.96
0.202	30.938000	1748	30.90600	30.97000	-45.70	39.16
0.203	31.020000	1747	30.97000	31.07000	-45.92	61.29
0.204	31.118000	1746	31.07000	31.16600	-46.07	58.94
0.205	31.214000	1745	31.16600	31.26200	-45.38	59.06
0.206	31.317000	1744	31.26200	31.37200	-44.29	67.72
0.207	31.421000	1743	31.37200	31.47000	-44.41	60.28
0.208	31.528000	1742	31.47000	31.58600	-45.65	71.29
0.209	31.634000	1741	31.58600	31.68200	-45.94	58.94
0.210	31.718000	1740	31.68200	31.75400	-46.39	44.17
0.211	31.786000	1739	31.75400	31.81800	-46.17	39.28
0.212	31.846000	1738	31.81800	31.87400	-45.32	34.41
0.213	31.922000	1737	31.87400	31.97000	-44.16	59.10
0.214	32.004000	1736	31.97000	32.03800	-43.59	41.96
0.215	32.081000	1735	32.03800	32.12400	-44.48	53.18
0.216	32.162000	1734	32.12400	32.20000	-45.23	47.10
0.217	32.281000	1733	32.20000	32.36200	-45.14	100.53
0.218	32.422000	1732	32.36200	32.48200	-44.16	74.50
0.219	32.553000	1731	32.48200	32.62400	-44.34	88.19
0.220	32.680000	1730	32.62400	32.73600	-44.57	69.58
0.221	32.794000	1729	32.73600	32.85200	-44.74	72.08
0.222	32.886000	1728	32.85200	32.92000	-45.83	42.24
0.223	32.956000	1727	32.92000	32.99200	-45.65	44.72
0.224	33.051000	1726	32.99200	33.11000	-44.56	73.27
0.225	33.164000	1725	33.11000	33.21800	-43.93	67.04
0.226	33.266000	1724	33.21800	33.31400	-44.49	59.66
0.227	33.368000	1723	33.31400	33.42200	-45.88	67.26
0.228	33.468000	1722	33.42200	33.51400	-46.05	57.41
0.229	33.561000	1721	33.51400	33.60800	-45.47	58.77
0.230	33.660000	1720	33.60800	33.71200	-45.23	65.15
0.231	33.748000	1719	33.71200	33.78400	-44.98	45.18
0.232	33.823000	1718	33.78400	33.86200	-44.79	48.99
0.233	33.898000	1717	33.86200	33.93400	-44.59	45.25
0.234	33.996000	1716	33.93400	34.05800	-44.20	78.00
0.235	34.109000	1715	34.05800	34.16000	-44.98	64.22
0.236	34.194000	1714	34.16000	34.22800	-45.97	42.85
0.237	34.263000	1713	34.22800	34.29800	-46.27	44.12
0.238	34.338000	1712	34.29800	34.37800	-45.91	50.43
0.239	34.423000	1711	34.37800	34.46800	-44.71	56.74
0.240	34.515000	1710	34.46800	34.56200	-44.02	59.27
0.241	34.618000	1709	34.56200	34.67400	-44.70	70.62
0.242	34.729000	1708	34.67400	34.78400	-46.07	69.37
0.243	34.820000	1707	34.78400	34.85600	-47.25	45.41
0.244	34.897000	1706	34.85600	34.93800	-47.32	51.76
0.245	35.013000	1705	34.93800	35.08800	-47.31	94.79
0.246	35.137000	1704	35.08800	35.18600	-46.96	62.01
0.247	35.225000	1703	35.18600	35.26400	-46.94	49.39
0.248	35.291000	1702	35.26400	35.31800	-47.06	34.21
0.249	35.352000	1701	35.31800	35.38600	-46.89	43.07
0.250	35.459000	1700	35.38600	35.53200	-45.62	92.47
0.251	35.598000	1699	35.53200	35.66400	-44.83	83.60
0.252	35.702000	1698	35.66400	35.74000	-45.51	48.13
0.253	35.780000	1697	35.74000	35.82000	-45.18	50.70
0.254	35.875000	1696	35.82000	35.93000	-44.59	69.86
0.255	35.991000	1695	35.93000	36.05200	-44.97	77.68
0.256	36.131000	1694	36.05200	36.21000	-44.24	100.92
0.257	36.268000	1693	36.21000	36.32600	-44.44	74.26
0.258	36.375000	1692	36.32600	36.42400	-44.12	62.66
0.259	36.461000	1691	36.42400	36.49800	-44.30	47.25
0.260	36.552000	1690	36.49800	36.60600	-44.71	68.87
0.261	36.652000	1689	36.60600	36.69800	-44.13	58.60
0.262	36.738000	1688	36.69800	36.77800	-43.13	50.93
0.263	36.822000	1687	36.77800	36.86600	-43.16	56.06
0.264	36.909000	1686	36.86600	36.95200	-43.79	54.83
0.265	37.007000	1685	36.95200	37.06200	-44.65	70.19
0.266	37.101000	1684	37.06200	37.14000	-45.11	49.81
0.267	37.194000	1683	37.14000	37.24800	-44.85	69.02
0.268	37.288000	1682	37.24800	37.32800	-43.89	51.16
0.269	37.364000	1681	37.32800	37.40000	-43.64	46.08
0.270	37.458000	1680	37.40000	37.51600	-43.78	74.29
0.271	37.554000	1679	37.51600	37.59200	-44.06	48.71
0.272	37.635000	1678	37.59200	37.67800	-44.70	55.16
0.273	37.709000	1677	37.67800	37.74000	-45.09	39.79
0.274	37.787000	1676	37.74000	37.83400	-44.21	60.36
0.275	37.896000	1675	37.83400	37.95800	-42.53	79.75
0.276	38.008000	1674	37.95800	38.05800	-43.63	64.41
0.277	38.115000	1673	38.05800	38.17200	-44.38	73.53
0.278	38.208000	1672	38.17200	38.24400	-44.21	46.50
0.279	38.272000	1671	38.24400	38.30000	-44.82	36.20
0.280	38.327000	1670	38.30000	38.35400	-45.25	34.90
0.281	38.381000	1669	38.35400	38.40800	-45.25	34.90
0.282	38.470000	1668	38.40800	38.53200	-44.76	80.11
0.283	38.564000	1667	38.53200	38.59600	-44.40	41.33
0.284	38.627000	1666	38.59600	38.65800	-44.62	40.03
0.285	38.695000	1665	38.65800	38.73200	-44.65	47.76
0.286	38.769000	1664	38.73200	38.80600	-43.98	47.76
0.287	38.829000	1663	38.80600	38.85200	-43.60	29.70
0.288	38.881000	1662	38.85200	38.91000	-43.81	37.46
0.289	38.956000	1661	38.91000	39.00200	-45.16	59.47
0.290	39.055000	1660	39.00200	39.10800	-46.26	68.59
0.291	39.145000	1659	39.10800	39.18200	-46.65	47.92
0.292	39.220000	1658	39.18200	39.25800	-46.71	49.25
0.293	39.294000	1657	39.25800	39.33000	-46.87	46.69
0.294	39.365000	1656	39.33000	39.40000	-47.00	45.41
0.295	39.445500	1655	39.40000	39.49100	-47.12	59.06
0.296	39.513000	1654	39.49100	39.53500	-47.20	28.57
0.297	39.590000	1653	39.53500	39.64500	-46.82	71.47
0.298	39.686000	1652	39.64500	39.72700	-45.90	53.31
0.299	39.759000	1651	39.72700	39.79100	-44.63	41.63
0.300	39.843000	1650	39.79100	39.89500	-43.80	67.74
0.301	39.931000	1649	39.89500	39.96700	-44.20	46.96
0.302	40.015000	1648	39.96700	40.06300	-45.32	62.69
0.303	40.116000	1647	40.06300	40.16900	-46.69	69.33
0.304	40.203000	1646	40.16900	40.23700	-46.67	44.53
0.305	40.268000	1645	40.23700	40.29900	-45.64	40.64
0.306	40.369500	1644	40.29900	40.44000	-44.47	92.53
0.307	40.476000	1643	40.44000	40.51200	-44.33	47.30
0.308	40.565000	1642	40.51200	40.61800	-44.98	69.71
0.309	40.656000	1641	40.61800	40.69400	-45.41	50.04
0.310	40.747000	1640	40.69400	40.80000	-45.54	69.85
0.311	40.827000	1639	40.80000	40.85400	-45.92	35.58
0.312	40.882000	1638	40.85400	40.91000	-46.42	36.88
0.313	40.967000	1637	40.91000	41.02400	-46.32	75.05
0.314	41.087000	1636	41.02400	41.15000	-44.96	82.90
0.315	41.185000	1635	41.15000	41.22000	-43.61	46.03
0.316	41.289000	1634	41.22000	41.35800	-43.80	90.87
0.317	41.400000	1633	41.35800	41.44200	-44.85	55.46
0.318	41.483000	1632	41.44200	41.52400	-44.79	54.23
0.319	41.561000	1631	41.52400	41.59800	-43.81	49.03
0.320	41.653000	1630	41.59800	41.70800	-43.19	73.05
0.321	41.761000	1629	41.70800	41.81400	-43.35	70.56
0.322	41.849000	1628	41.81400	41.88400	-44.03	46.64
0.323	41.934000	1627	41.88400	41.98400	-45.95	66.59
0.324	42.023000	1626	41.98400	42.06200	-47.30	51.91
0.325	42.107000	1625	42.06200	42.15200	-47.17	59.87
0.326	42.187000	1624	42.15200	42.22200	-46.37	46.54
0.327	42.251000	1623	42.22200	42.28000	-45.62	38.56
0.328	42.344000	1622	42.28000	42.40800	-44.97	85.29
0.329	42.471000	1621	42.40800	42.53400	-46.02	84.19
0.330	42.553000	1620	42.53400	42.57200	-47.20	25.45
0.331	42.623000	1619	42.57200	42.67400	-47.59	68.39
0.332	42.720000	1618	42.67400	42.76600	-47.76	61.83
0.333	42.812000	1617	42.76600	42.85800	-47.28	61.89
0.334	42.905000	1616	42.85800	42.95200	-46.46	63.13
0.335	42.981000	1615	42.95200	43.01000	-45.55	38.90
0.336	43.053000	1614	43.01000	43.09600	-44.45	57.58
0.337	43.151000	1613	43.09600	43.20600	-43.67	73.52
0.338	43.277000	1612	43.20600	43.34800	-43.94	94.81
0.339	43.412500	1611	43.34800	43.47700	-45.62	86.33
0.340	43.518000	1610	43.47700	43.55900	-45.83	54.98
0.341	43.618000	1609	43.55900	43.67700	-45.85	79.25
0.342	43.716000	1608	43.67700	43.75500	-46.84	52.48
0.343	43.785000	1607	43.75500	43.81500	-47.11	40.40
0.344	43.868000	1606	43.81500	43.92100	-46.65	71.33
0.345	43.947000	1605	43.92100	43.97300	-45.66	34.97
0.346	44.046000	1604	43.97300	44.11900	-43.35	98.11
0.347	44.206000	1603	44.11900	44.29300	-40.09	116.82
0.348	44.346000	1602	44.29300	44.39900	-42.60	71.33
0.349	44.459500	1601	44.39900	44.52000	-43.96	81.61
0.350	44.564000	1600	44.52000	44.60800	-44.99	59.51
0.351	44.638000	1599	44.60800	44.66800	-45.95	40.65
0.352	44.707000	1598	44.66800	44.74600	-45.83	52.94
0.353	44.792000	1597	44.74600	44.83800	-44.92	62.54
0.354	44.890000	1596	44.83800	44.94200	-44.18	70.80
0.355	44.997000	1595	44.94200	45.05200	-45.31	75.02
0.356	45.105000	1594	45.05200	45.15800	-45.91	72.42
0.357	45.209000	1593	45.15800	45.26000	-45.00	69.79
0.358	45.332000	1592	45.26000	45.40400	-44.36	98.36
0.359	45.436000	1591	45.40400	45.46800	-44.26	43.61
0.360	45.491000	1590	45.46800	45.51400	-44.38	31.30
0.361	45.566000	1589	45.51400	45.61800	-44.32	70.66
0.362	45.658000	1588	45.61800	45.69800	-44.15	54.24
0.363	45.752000	1587	45.69800	45.80600	-44.47	73.10
0.364	45.863000	1586	45.80600	45.92000	-44.79	77.13
0.365	45.959000	1585	45.92000	45.99800	-45.33	52.77
0.366	46.034000	1584	45.99800	46.07000	-45.57	48.70
0.367	46.102000	1583	46.07000	46.13400	-45.41	43.28
0.368	46.193000	1582	46.13400	46.25200	-45.59	79.79
0.369	46.286000	1581	46.25200	46.32000	-45.35	46.02
0.370	46.367500	1580	46.32000	46.41500	-44.73	64.42
0.371	46.473000	1579	46.41500	46.53100	-43.86	78.85
0.372	46.562000	1578	46.53100	46.59300	-43.72	42.24
0.373	46.629000	1577	46.59300	46.66500	-44.15	49.13
0.374	46.690000	1576	46.66500	46.71500	-44.17	34.16
0.375	46.758000	1575	46.71500	46.80100	-43.55	58.72
0.376	46.833000	1574	46.80100	46.86500	-42.72	43.67
0.377	46.895000	1573	46.86500	46.92500	-42.13	40.91
0.378	46.974000	1572	46.92500	47.02300	-43.24	66.76
0.379	47.064000	1571	47.02300	47.10500	-44.26	55.82
0.380	47.161000	1570	47.10500	47.21700	-44.59	76.16
0.381	47.255000	1569	47.21700	47.29300	-44.08	51.65
0.382	47.342000	1568	47.29300	47.39100	-43.31	66.67
0.383	47.450000	1567	47.39100	47.50900	-43.18	80.43
0.384	47.544000	1566	47.50900	47.57900	-43.52	47.78
0.385	47.609000	1565	47.57900	47.63900	-43.36	41.00
0.386	47.691000	1564	47.63900	47.74300	-43.01	71.16
0.387	47.779000	1563	47.74300	47.81500	-43.72	49.38
0.388	47.867000	1562	47.81500	47.91900	-45.32	71.50
0.389	47.957000	1561	47.91900	47.99500	-46.27	52.37
0.390	48.047000	1560	47.99500	48.09900	-45.22	71.85
0.391	48.156000	1559	48.09900	48.21300	-44.88	78.98
0.392	48.274000	1558	48.21300	48.33500	-46.82	84.70
0.393	48.364000	1557	48.33500	48.39300	-47.31	40.24
0.394	48.429000	1556	48.39300	48.46500	-47.36	49.93
0.395	48.504000	1555	48.46500	48.54300	-47.16	54.05
0.396	48.577000	1554	48.54300	48.61100	-46.64	47.09
0.397	48.656000	1553	48.61100	48.70100	-45.88	62.28
0.398	48.739000	1552	48.70100	48.77700	-45.15	52.61
0.399	48.819000	1551	48.77700	48.86100	-45.08	58.20
0.400	48.896000	1550	48.86100	48.93100	-45.72	48.54
0.401	48.992000	1549	48.93100	49.05300	-46.15	84.70
0.402	49.090000	1548	49.05300	49.12700	-45.92	51.43
0.403	49.188000	1547	49.12700	49.24900	-45.77	84.89
0.404	49.284000	1546	49.24900	49.31900	-45.54	48.75
0.405	49.349000	1545	49.31900	49.37900	-45.72	41.79
0.406	49.416000	1544	49.37900	49.45300	-45.95	51.54
0.407	49.521000	1543	49.45300	49.58900	-46.55	94.73
0.408	49.624000	1542	49.58900	49.65900	-46.49	48.76
0.409	49.722000	1541	49.65900	49.78500	-46.30	87.77
0.410	49.806000	1540	49.78500	49.82700	-45.83	29.28
0.411	49.853000	1539	49.82700	49.87900	-45.45	36.27
0.412	49.914000	1538	49.87900	49.94900	-44.81	48.85
0.413	50.010000	1537	49.94900	50.07100	-44.17	85.23
0.414	50.133000	1536	50.07100	50.19500	-44.38	86.74
0.415	50.228000	1535	50.19500	50.26100	-44.97	46.22
0.416	50.310000	1534	50.26100	50.35900	-45.62	68.64
0.417	50.399000	1533	50.35900	50.43900	-46.35	56.00
0.418	50.464000	1532	50.43900	50.48900	-46.34	34.99
0.419	50.528000	1531	50.48900	50.56700	-45.87	54.56
0.420	50.634000	1530	50.56700	50.70100	-45.59	93.65
0.421	50.751000	1529	50.70100	50.80100	-45.89	69.85
0.422	50.834000	1528	50.80100	50.86700	-45.35	46.11
0.423	50.904000	1527	50.86700	50.94100	-45.15	51.72
0.424	50.987000	1526	50.94100	51.03300	-45.34	64.33
0.425	51.085000	1525	51.03300	51.13700	-45.78	72.76
0.426	51.171000	1524	51.13700	51.20500	-45.84	47.59
0.427	51.231000	1523	51.20500	51.25700	-45.81	36.40
0.428	51.322000	1522	51.25700	51.38700	-45.78	91.07
0.429	51.431000	1521	51.38700	51.47500	-46.28	61.73
0.430	51.510000	1520	51.47500	51.54500	-46.98	49.16
0.431	51.569000	1519	51.54500	51.59300	-47.25	33.74
0.432	51.620000	1518	51.59300	51.64700	-46.94	37.99
0.433	51.667000	1517	51.64700	51.68700	-46.39	28.16
0.434	51.726000	1516	51.68700	51.76500	-45.82	54.94
0.435	51.789000	1515	51.76500	51.81300	-45.48	33.82
0.436	51.839000	1514	51.81300	51.86500	-45.52	36.64
0.437	51.909000	1513	51.86500	51.95300	-45.88	61.99
0.438	52.012000	1512	51.95300	52.07100	-45.42	83.11
0.439	52.093000	1511	52.07100	52.11500	-44.79	30.99
0.440	52.155000	1510	52.11500	52.19500	-44.17	56.32
0.441	52.240500	1509	52.19500	52.28600	-43.86	64.08
0.442	52.321000	1508	52.28600	52.35600	-43.80	49.33
0.443	52.407000	1507	52.35600	52.45800	-44.37	71.96
0.444	52.503000	1506	52.45800	52.54800	-45.55	63.57
0.445	52.586000	1505	52.54800	52.62400	-45.50	53.74
0.446	52.667000	1504	52.62400	52.71000	-44.91	60.86
0.447	52.746000	1503	52.71000	52.78200	-45.13	50.99
0.448	52.830000	1502	52.78200	52.87800	-46.03	67.99
0.449	52.949000	1501	52.87800	53.02000	-46.90	100.55
0.450	53.050000	1500	53.02000	53.08000	-47.23	42.48
0.451	53.136000	1499	53.08000	53.19200	-46.92	79.27
0.452	53.246500	1498	53.19200	53.30100	-45.62	77.13
0.453	53.328000	1497	53.30100	53.35500	-44.52	38.22
0.454	53.412000	1496	53.35500	53.46900	-44.02	80.73
0.455	53.518000	1495	53.46900	53.56700	-44.17	69.43
0.456	53.601000	1494	53.56700	53.63500	-44.57	48.19
0.457	53.675000	1493	53.63500	53.71500	-45.56	56.71
0.458	53.761000	1492	53.71500	53.80700	-46.58	65.26
0.459	53.857000	1491	53.80700	53.90700	-46.57	71.06
0.460	53.948000	1490	53.90700	53.98900	-46.09	58.37
0.461	54.031000	1489	53.98900	54.07300	-45.67	59.89
0.462	54.102000	1488	54.07300	54.13100	-45.05	41.41
0.463	54.154000	1487	54.13100	54.17700	-44.58	32.87
0.464	54.223500	1486	54.17700	54.27000	-44.83	66.52
0.465	54.312000	1485	54.27000	54.35400	-45.56	60.11
0.466	54.383000	1484	54.35400	54.41200	-45.79	41.52
0.467	54.453000	1483	54.41200	54.49400	-45.94	58.72
0.468	54.546000	1482	54.49400	54.59800	-46.36	74.51
0.469	54.655000	1481	54.59800	54.71200	-47.17	81.73
0.470	54.747000	1480	54.71200	54.78200	-47.89	50.22
0.471	54.839000	1479	54.78200	54.89600	-47.94	81.90
0.472	54.942000	1478	54.89600	54.98800	-47.83	66.22
0.473	55.015000	1477	54.98800	55.04200	-47.74	38.90
0.474	55.084000	1476	55.04200	55.12600	-47.56	60.63
0.475	55.185000	1475	55.12600	55.24400	-47.14	85.30
0.476	55.283000	1474	55.24400	55.32200	-46.13	56.40
0.477	55.365000	1473	55.32200	55.40800	-45.23	62.15
0.478	55.448000	1472	55.40800	55.48800	-45.52	57.76
0.479	55.522000	1471	55.48800	55.55600	-46.09	49.07
0.480	55.597000	1470	55.55600	55.63800	-46.11	59.13
0.481	55.677000	1469	55.63800	55.71600	-46.06	56.20
0.482	55.760000	1468	55.71600	55.80400	-46.19	63.37
0.483	55.844000	1467	55.80400	55.88400	-46.27	57.65
0.484	55.936000	1466	55.88400	55.98800	-45.11	75.03
0.485	56.018000	1465	55.98800	56.04800	-44.33	43.33
0.486	56.081000	1464	56.04800	56.11400	-44.35	47.69
0.487	56.136000	1463	56.11400	56.15800	-44.70	31.81
0.488	56.175000	1462	56.15800	56.19200	-45.24	24.60
0.489	56.238000	1461	56.19200	56.28400	-45.29	66.61
0.490	56.340000	1460	56.28400	56.39600	-45.13	81.14
0.491	56.440000	1459	56.39600	56.48400	-43.73	63.81
0.492	56.537000	1458	56.48400	56.59000	-42.80	76.91
0.493	56.634000	1457	56.59000	56.67800	-43.46	63.90
0.494	56.712000	1456	56.67800	56.74600	-44.87	49.40
0.495	56.800000	1455	56.74600	56.85400	-45.91	78.54
0.496	56.890000	1454	56.85400	56.92600	-45.50	52.44
0.497	56.969000	1453	56.92600	57.01200	-44.34	62.74
0.498	57.048000	1452	57.01200	57.08400	-43.83	52.60
0.499	57.118000	1451	57.08400	57.15200	-44.30	49.74
0.500	57.189000	1450	57.15200	57.22600	-44.96	54.20
0.501	57.258000	1449	57.22600	57.29000	-44.83	46.90
0.502	57.329000	1448	57.29000	57.36800	-44.49	57.14
0.503	57.412000	1447	57.36800	57.45600	-44.31	64.41
0.504	57.483000	1446	57.45600	57.51000	-44.47	39.50
0.505	57.563000	1445	57.51000	57.61600	-44.77	77.48
0.506	57.646000	1444	57.61600	57.67600	-45.23	43.82
0.507	57.732000	1443	57.67600	57.78800	-45.69	81.74
0.508	57.846000	1442	57.78800	57.90400	-45.16	84.64
0.509	57.944000	1441	57.90400	57.98400	-44.65	58.39
0.510	58.034000	1440	57.98400	58.08400	-44.47	73.00
0.511	58.136000	1439	58.08400	58.18800	-44.37	75.95
0.512	58.234000	1438	58.18800	58.28000	-44.66	67.21
0.513	58.334000	1437	58.28000	58.38800	-45.05	78.95
0.514	58.422000	1436	58.38800	58.45600	-45.33	49.74
0.515	58.494000	1435	58.45600	58.53200	-45.48	55.63
0.516	58.565000	1434	58.53200	58.59800	-45.86	48.33
0.517	58.635000	1433	58.59800	58.67200	-45.80	54.23
0.518	58.724000	1432	58.67200	58.77600	-44.97	76.26
0.519	58.819000	1431	58.77600	58.86200	-44.35	63.14
0.520	58.911000	1430	58.86200	58.96000	-43.80	72.08
0.521	58.991000	1429	58.96000	59.02200	-43.85	45.67
0.522	59.043000	1428	59.02200	59.06400	-43.95	30.96
0.523	59.095000	1427	59.06400	59.12600	-44.91	45.75
0.524	59.163000	1426	59.12600	59.20000	-45.76	54.68
0.525	59.231000	1425	59.20000	59.26200	-46.26	45.87
0.526	59.315000	1424	59.26200	59.36800	-46.14	78.52
0.527	59.394000	1423	59.36800	59.42000	-45.92	38.56
0.528	59.448000	1422	59.42000	59.47600	-45.81	41.56
0.529	59.529000	1421	59.47600	59.58200	-45.54	78.76
0.530	59.611000	1420	59.58200	59.64000	-45.69	43.14
0.531	59.659000	1419	59.64000	59.67800	-45.75	28.28
0.532	59.740000	1418	59.67800	59.80200	-45.51	92.39
0.533	59.859000	1417	59.80200	59.91600	-44.42	84.91
0.534	59.953000	1416	59.91600	59.99000	-45.41	55.09
0.535	60.011000	1415	59.99000	60.03200	-46.69	31.25
0.536	60.078000	1414	60.03200	60.12400	-47.69	68.42
0.537	60.162000	1413	60.12400	60.20000	-47.85	56.49
0.538	60.234500	1412	60.20000	60.26900	-47.27	51.26
0.539	60.301000	1411	60.26900	60.33300	-46.84	47.54
0.540	60.368000	1410	60.33300	60.40300	-46.25	51.98
0.541	60.442000	1409	60.40300	60.48100	-45.88	57.91
0.542	60.522000	1408	60.48100	60.56300	-45.53	60.87
0.543	60.590000	1407	60.56300	60.61700	-45.56	40.08
0.544	60.663000	1406	60.61700	60.70900	-45.77	68.26
0.545	60.735000	1405	60.70900	60.76100	-46.47	38.58
0.546	60.804000	1404	60.76100	60.84700	-46.95	63.80
0.547	60.900000	1403	60.84700	60.95300	-46.44	78.68
0.548	60.993000	1402	60.95300	61.03300	-45.35	59.42
0.549	61.074000	1401	61.03300	61.11500	-44.33	60.93
0.550	61.152000	1400	61.11500	61.18900	-44.39	55.01
0.551	61.234500	1399	61.18900	61.28000	-44.73	67.68
0.552	61.327000	1398	61.28000	61.37400		69.96
0.553	61.399000	1397	61.37400	61.42400	-45.02	37.25
0.554	61.452000	1396	61.42400	61.48000	-45.00	41.74
0.555	61.525000	1395	61.48000	61.57000	-45.14	67.13
0.556	61.607000	1394	61.57000	61.64400	-45.00	55.24
0.557	61.676000	1393	61.64400	61.70800	-44.61	47.81
0.558	61.771000	1392	61.70800	61.83400	-43.91	94.22
0.559	61.870000	1391	61.83400	61.90600		53.89
0.560	61.932000	1390	61.90600	61.95800	-43.48	38.95
0.561	62.007000	1389	61.95800	62.05600	-43.62	73.46
0.562	62.092000	1388	62.05600	62.12800	-44.09	54.02
0.563	62.161000	1387	62.12800	62.19400	-44.66	49.56
0.564	62.234000	1386	62.19400	62.27400	-45.46	60.12
0.565	62.311000	1385	62.27400	62.34800	-46.63	55.64
0.566	62.381000	1384	62.34800	62.41400	-47.32	49.64
0.567	62.452000	1383	62.41400	62.49000	-46.78	57.18
0.568	62.559000	1382	62.49000	62.62800	-44.51	103.87
0.569	62.670000	1381	62.62800	62.71200	-44.37	63.26
0.570	62.761000	1380	62.71200	62.81000	-46.12	73.84
0.571	62.851000	1379	62.81000	62.89200	-46.84	61.81
0.572	62.940000	1378	62.89200	62.98800	-46.16	72.41
0.573	63.051000	1377	62.98800	63.11400	-45.24	95.11
0.574	63.181000	1376	63.11400	63.24800	-45.27	101.22
0.575	63.283000	1375	63.24800	63.31800	-45.90	52.84
0.576	63.353000	1374	63.31800	63.38800	-46.05	52.80
0.577	63.415000	1373	63.38800	63.44200	-45.75	40.70
0.578	63.485000	1372	63.44200	63.52800	-44.40	64.76
0.579	63.582000	1371	63.52800	63.63600	-43.44	81.25
0.580	63.683000	1370	63.63600	63.73000	-43.36	70.63
0.581	63.781000	1369	63.73000	63.83200	-43.21	76.59
0.582	63.857000	1368	63.83200	63.88200	-43.72	37.58
0.583	63.909000	1367	63.88200	63.93600	-44.37	40.63
0.584	63.983000	1366	63.93600	64.03000	-45.65	70.83
0.585	64.057000	1365	64.03000	64.08400	-46.32	40.75
0.586	64.124000	1364	64.08400	64.16400	-46.58	60.45
0.587	64.213000	1363	64.16400	64.26200	-46.96	74.18
0.588	64.294000	1362	64.26200	64.32600	-46.77	48.47
0.589	64.376000	1361	64.32600	64.42600	-46.33	75.75
0.590	64.471000	1360	64.42600	64.51600	-45.86	68.17
0.591	64.570000	1359	64.51600	64.62400	-45.61	81.82
0.592	64.647000	1358	64.62400	64.67000	-45.55	34.85
0.593	64.715000	1357	64.67000	64.76000	-45.63	68.19
0.594	64.799000	1356	64.76000	64.83800	-45.67	59.13
0.595	64.868000	1355	64.83800	64.89800	-45.59	45.53
0.596	64.972000	1354	64.89800	65.04600	-45.70	112.45
0.597	65.096000	1353	65.04600	65.14600	-45.66	76.10
0.598	65.203500	1352	65.14600	65.26100	-45.61	87.62
0.599	65.301000	1351	65.26100	65.34100	-46.47	60.96
0.600	65.375000	1350	65.34100	65.40900	-46.19	51.79
0.601	65.468000	1349	65.40900	65.52700	-44.96	89.84
0.602	65.569000	1348	65.52700	65.61100	-44.58	63.93
0.603	65.644000	1347	65.61100	65.67700	-44.33	50.21
0.604	65.732000	1346	65.67700	65.78700	-44.11	83.67
0.605	65.822000	1345	65.78700	65.85700	-44.32	53.28
0.606	65.917000	1344	65.85700	65.97700	-44.76	91.44
0.607	66.018000	1343	65.97700	66.05900	-44.68	62.57
0.608	66.116000	1342	66.05900	66.17300	-44.07	87.09
0.609	66.222500	1341	66.17300	66.27200	-44.10	75.74
0.610	66.316000	1340	66.27200	66.36000	-44.34	67.41
0.611	66.419000	1339	66.36000	66.47800	-44.03	90.55
0.612	66.530000	1338	66.47800	66.58200	-43.57	79.99
0.613	66.625000	1337	66.58200	66.66800	-43.54	66.27
0.614	66.735000	1336	66.66800	66.80200	-43.68	103.45
0.615	66.857000	1335	66.80200	66.91200	-45.16	84.84
0.616	66.953000	1334	66.91200	66.99400	-46.38	63.14
0.617	67.032000	1333	66.99400	67.07000	-45.98	58.44
0.618	67.126000	1332	67.07000	67.18200	-45.38	86.00
0.619	67.217000	1331	67.18200	67.25200	-45.67	53.67
0.620	67.302000	1330	67.25200	67.35200	-45.52	76.67
0.621	67.387000	1329	67.35200	67.42200	-44.92	53.69
0.622	67.450000	1328	67.42200	67.47800	-44.32	42.97
0.623	67.519000	1327	67.47800	67.56000	-43.37	62.94
0.624	67.615000	1326	67.56000	67.67000		84.48
0.625	67.720000	1325	67.67000	67.77000	-41.91	76.84
0.626	67.814000	1324	67.77000	67.85800	-43.81	67.67
0.627	67.891000	1323	67.85800	67.92400	-44.32	50.77
0.628	67.956000	1322	67.92400	67.98800	-43.81	49.25
0.629	68.024000	1321	67.98800	68.06000	-43.71	55.44
0.630	68.093000	1320	68.06000	68.12600	-44.57	50.85
0.631	68.149000	1319	68.12600	68.17200	-45.23	35.45
0.632	68.202500	1318	68.17200	68.23300	-45.55	47.03
0.633	68.289000	1317	68.23300	68.34500	-45.75	86.40
0.634	68.387000	1316	68.34500	68.42900	-45.40	64.86
0.635	68.461000	1315	68.42900	68.49300	-45.26	49.45
0.636	68.528000	1314	68.49300	68.56300	-45.77	54.13
0.637	68.610000	1313	68.56300	68.65700	-46.45	72.74
0.638	68.685000	1312	68.65700	68.71300	-46.09	43.37
0.639	68.746000	1311	68.71300	68.77900	-45.38	51.14
0.640	68.817000	1310	68.77900	68.85500	-44.67	58.87
0.641	68.877000	1309	68.85500	68.89900	-44.48	34.06
0.642	68.942000	1308	68.89900	68.98500	-44.98	66.55
0.643	69.012000	1307	68.98500	69.03900	-45.92	41.76
0.644	69.060000	1306	69.03900	69.08100	-46.19	32.47
0.645	69.113000	1305	69.08100	69.14500	-46.14	49.45
0.646	69.188500	1304	69.14500	69.23200	-45.47	67.19
0.647	69.264000	1303	69.23200	69.29600	-45.01	49.41
0.648	69.346000	1302	69.29600	69.39600	-45.11	77.26
0.649	69.430000	1301	69.39600	69.46400	-45.66	52.58
0.650	69.508000	1300	69.46400	69.55200	-46.66	68.12
0.651	69.589000	1299	69.55200	69.62600	-46.32	57.32
0.652	69.653000	1298	69.62600	69.68000	-45.16	41.86
0.653	69.713000	1297	69.68000	69.74600	-44.09	51.20
0.654	69.773000	1296	69.74600	69.80000	-43.89	41.92
0.655	69.834000	1295	69.80000	69.86800	-44.92	52.82
0.656	69.915000	1294	69.86800	69.96200	-46.19	73.10
0.657	70.000000	1293	69.96200	70.03800	-46.24	59.17
0.658	70.074000	1292	70.03800	70.11000	-46.10	56.10
0.659	70.149500	1291	70.11000	70.18900	-46.36	61.62
0.660	70.226000	1290	70.18900	70.26300	-46.74	57.78
0.661	70.299000	1289	70.26300	70.33500	-46.74	56.23
0.662	70.369000	1288	70.33500	70.40300	-46.35	53.10
0.663	70.441000	1287	70.40300	70.47900	-45.44	59.33
0.664	70.531000	1286	70.47900	70.58300	-44.59	81.18
0.665	70.617000	1285	70.58300	70.65100	-44.25	53.06
0.666	70.686000	1284	70.65100	70.72100	-45.55	54.61
0.667	70.782000	1283	70.72100	70.84300	-46.06	95.19
0.668	70.869000	1282	70.84300	70.89500	-46.82	40.59
0.669	70.919000	1281	70.89500	70.94300	-46.87	37.49
0.670	70.978000	1280	70.94300	71.01300	-46.68	54.69
0.671	71.063000	1279	71.01300	71.11300	-46.06	78.17
0.672	71.156000	1278	71.11300	71.19900	-45.43	67.27
0.673	71.243000	1277	71.19900	71.28700	-45.54	68.89
0.674	71.345000	1276	71.28700	71.40300	-46.34	90.95
0.675	71.433000	1275	71.40300	71.46300	-47.15	47.11
0.676	71.491000	1274	71.46300	71.51900	-47.20	44.02
0.677	71.552000	1273	71.51900	71.58500	-46.75	51.94
0.678	71.643000	1272	71.58500	71.70100	-45.86	91.43
0.679	71.734000	1271	71.70100	71.76700	-45.58	52.10
0.680	71.806000	1270	71.76700	71.84500	-46.08	61.55
0.681	71.885000	1269	71.84500	71.92500	-46.83	63.06
0.682	71.957000	1268	71.92500	71.98900	-46.56	50.40
0.683	72.026000	1267	71.98900	72.06300	-45.85	58.22
0.684	72.100000	1266	72.06300	72.13700	-45.39	58.16
0.685	72.166000	1265	72.13700	72.19500	-45.44	45.55
0.686	72.221000	1264	72.19500	72.24700	-45.57	40.81
0.687	72.273000	1263	72.24700	72.29900	-45.72	40.78
0.688	72.344000	1262	72.29900	72.38900	-45.43	70.57
0.689	72.422000	1261	72.38900	72.45500	-45.23	51.75
0.690	72.490000	1260	72.45500	72.52500	-45.71	54.88
0.691	72.567000	1259	72.52500	72.60900	-46.52	65.75
0.692	72.630000	1258	72.60900	72.65100	-46.90	33.38
0.693	72.705000	1257	72.65100	72.75900	-46.64	84.18
0.694	72.782000	1256	72.75900	72.80500	-45.91	36.16
0.695	72.872500	1255	72.80500	72.94000	-45.53	105.40
0.696	72.984000	1254	72.94000	73.02800	-45.69	68.64
0.697	73.072000	1253	73.02800	73.11600	-45.79	68.42
0.698	73.143500	1252	73.11600	73.17100	-45.62	43.16
0.699	73.205000	1251	73.17100	73.23900	-45.13	52.55
0.700	73.271000	1250	73.23900	73.30300	-44.39	50.28
0.701	73.336000	1249	73.30300	73.36900	-43.40	51.09
0.702	73.407000	1248	73.36900	73.44500	-42.61	59.06
0.703	73.488000	1247	73.44500	73.53100	-42.33	67.24
0.704	73.559500	1246	73.53100	73.58800	-42.56	44.40
0.705	73.611000	1245	73.58800	73.63400	-43.13	35.55
0.706	73.674500	1244	73.63400	73.71500	-44.10	63.45
0.707	73.770000	1243	73.71500	73.82500	-45.65	86.42
0.708	73.867500	1242	73.82500	73.91000	-45.69	66.39
0.709	73.940500	1241	73.91000	73.97100	-45.47	47.81
0.710	73.998000	1240	73.97100	74.02500	-45.35	42.81
0.711	74.063500	1239	74.02500	74.10200	-45.49	60.21
0.712	74.139500	1238	74.10200	74.17700	-45.59	59.52
0.713	74.209000	1237	74.17700	74.24100	-45.65	50.34
0.714	74.286000	1236	74.24100	74.33100	-45.92	70.65
0.715	74.368000	1235	74.33100	74.40500	-46.29	58.58
0.716	74.430000	1234	74.40500	74.45500	-46.39	39.46
0.717	74.480000	1233	74.45500	74.50500	-46.13	39.47
0.718	74.528000	1232	74.50500	74.55100	-45.65	36.45
0.719	74.582500	1231	74.55100	74.61400	-45.41	49.45
0.720	74.650000	1230	74.61400	74.68600	-45.52	57.17
0.721	74.727000	1229	74.68600	74.76800	-46.17	64.38
0.722	74.814500	1228	74.76800	74.86100	-46.77	74.16
0.723	74.886500	1227	74.86100	74.91200	-46.75	40.55
0.724	74.946500	1226	74.91200	74.98100	-46.15	54.01
0.725	75.027000	1225	74.98100	75.07300	-45.36	72.77
0.726	75.110000	1224	75.07300	75.14700	-45.32	59.11
0.727	75.197500	1223	75.14700	75.24800	-46.32	79.62
0.728	75.285500	1222	75.24800	75.32300	-46.38	59.40
0.729	75.353500	1221	75.32300	75.38400	-46.99	48.77
0.730	75.414500	1220	75.38400	75.44500	-47.11	48.27
0.731	75.480500	1219	75.44500	75.51600	-47.17	56.81
0.732	75.547500	1218	75.51600	75.57900	-47.08	49.55
0.733	75.610000	1217	75.57900	75.64100	-46.46	49.98
0.734	75.674000	1216	75.64100	75.70700	-45.64	52.48
0.735	75.753500	1215	75.70700	75.80000	-45.68	74.28
0.736	75.850500	1214	75.80000	75.90100	-45.74	80.68
0.737	75.934000	1213	75.90100	75.96700	-45.32	52.37
0.738	75.995000	1212	75.96700	76.02300	-44.79	44.48
0.739	76.056000	1211	76.02300	76.08900	-43.68	52.20
0.740	76.120000	1210	76.08900	76.15100	-43.92	49.02
0.741	76.188000	1209	76.15100	76.22500	-43.46	59.30
0.742	76.267500	1208	76.22500	76.31000	-43.50	66.96
0.743	76.369500	1207	76.31000	76.42900	-44.06	94.05
0.744	76.480000	1206	76.42900	76.53100	-44.44	81.60
0.745	76.565500	1205	76.53100	76.60000	-45.23	55.27
0.746	76.627000	1204	76.60000	76.65400	-45.44	43.02
0.747	76.689000	1203	76.65400	76.72400	-44.89	55.64
0.748	76.760000	1202	76.72400	76.79600	-44.62	57.45
0.749	76.833500	1201	76.79600	76.87100	-45.32	59.75
0.750	76.906000	1200	76.87100	76.94100	-46.40	56.04
0.751	76.986000	1199	76.94100	77.03100	-47.26	71.31
0.752	77.067500	1198	77.03100	77.10400	-47.27	57.90
0.753	77.141500	1197	77.10400	77.17900	-46.89	60.08
0.754	77.223500	1196	77.17900	77.26800	-45.92	69.99
0.755	77.297500	1195	77.26800	77.32700	-45.18	47.33
0.756	77.363000	1194	77.32700	77.39900	-44.70	56.95
0.757	77.442000	1193	77.39900	77.48500	-44.44	68.02
0.758	77.527000	1192	77.48500	77.56900	-44.85	66.57
0.759	77.607500	1191	77.56900	77.64600		61.76
0.760	77.686500	1190	77.64600	77.72700	-45.75	64.58
0.761	77.768500	1189	77.72700	77.81000	-45.28	66.24
0.762	77.843000	1188	77.81000	77.87600	-44.47	51.98
0.763	77.924500	1187	77.87600	77.97300	-43.90	77.30
0.764	78.009500	1186	77.97300	78.04600	-44.35	58.23
0.765	78.091000	1185	78.04600	78.13600	-44.45	71.95
0.766	78.184000	1184	78.13600	78.23200	-43.57	76.94
0.767	78.271500	1183	78.23200	78.31100	-42.36	62.82
0.768	78.348000	1182	78.31100	78.38500	-41.98	58.55
0.769	78.413000	1181	78.38500	78.44100	-42.89	45.41
0.770	78.477500	1180	78.44100	78.51400	-44.14	58.15
0.771	78.551000	1179	78.51400	78.58800	-44.78	58.83
0.772	78.631500	1178	78.58800	78.67500	-45.39	69.60
0.773	78.722500	1177	78.67500	78.77000	-45.83	76.60
0.774	78.808000	1176	78.77000	78.84600	-45.54	61.37
0.775	78.898500	1175	78.84600	78.95100	-44.29	84.59
0.776	78.976000	1174	78.95100	79.00100	-43.57	40.22
0.777	79.034000	1173	79.00100	79.06700	-44.13	53.47
0.778	79.094500	1172	79.06700	79.12200	-44.42	44.60
0.779	79.163500	1171	79.12200	79.20500	-44.60	66.93
0.780	79.238500	1170	79.20500	79.27200	-44.86	54.08
0.781	79.294500	1169	79.27200	79.31700	-44.89	37.17
0.782	79.342500	1168	79.31700	79.36800	-45.19	41.04
0.783	79.400000	1167	79.36800	79.43200	-45.84	51.37
0.784	79.460000	1166	79.43200	79.48800	-46.21	45.76
0.785	79.521500	1165	79.48800	79.55500	-46.01	54.03
0.786	79.584000	1164	79.55500	79.61300	-45.74	47.10
0.787	79.656500	1163	79.61300	79.70000	-45.19	69.88
0.788	79.760000	1162	79.70000	79.82000	-44.48	96.65
0.789	79.880000	1161	79.82000	79.94000	-45.06	96.64
0.790	79.979500	1160	79.94000	80.01900	-45.60	63.37
0.791	80.055000	1159	80.01900	80.09100	-44.68	58.45
0.792	80.139500	1158	80.09100	80.18800	-42.70	77.55
0.793	80.222500	1157	80.18800	80.25700	-42.44	55.88
0.794	80.299500	1156	80.25700	80.34200	-43.30	68.95
0.795	80.386500	1155	80.34200	80.43100	-44.02	71.72
0.796	80.465500	1154	80.43100	80.50000	-44.13	55.54
0.797	80.540500	1153	80.50000	80.58100	-44.67	66.13
0.798	80.619000	1152	80.58100	80.65700	-45.09	61.17
0.799	80.694500	1151	80.65700	80.73200	-45.05	61.49
0.800	80.766000	1150	80.73200	80.80000	-44.79	54.56
0.801	80.831000	1149	80.80000	80.86200	-44.50	51.12
0.802	80.899000	1148	80.86200	80.93600	-44.71	59.26
0.803	80.980500	1147	80.93600	81.02500	-45.05	72.47
0.804	81.077500	1146	81.02500	81.13000	-43.91	85.32
0.805	81.163000	1145	81.13000	81.19600	-43.55	52.93
0.806	81.224500	1144	81.19600	81.25300	-43.98	46.06
0.807	81.287500	1143	81.25300	81.32200	-44.81	55.48
0.808	81.359500	1142	81.32200	81.39700	-45.69	61.17
0.809	81.451000	1141	81.39700	81.50500	-45.79	87.20
0.810	81.526500	1140	81.50500	81.54800	-45.30	34.74
0.811	81.576500	1139	81.54800	81.60500	-44.96	46.35
0.812	81.665500	1138	81.60500	81.72600	-44.93	98.39
0.813	81.766000	1137	81.72600	81.80600	-45.05	65.11
0.814	81.842000	1136	81.80600	81.87800	-44.52	58.54
0.815	81.920000	1135	81.87800	81.96200	-44.37	68.28
0.816	81.999500	1134	81.96200	82.03700	-45.14	60.46
0.817	82.076500	1133	82.03700	82.11600	-45.75	63.72
0.818	82.160000	1132	82.11600	82.20400	-45.40	71.24
0.819	82.243500	1131	82.20400	82.28300	-44.60	64.17
0.820	82.315500	1130	82.28300	82.34800	-43.73	52.06
0.821	82.406500	1129	82.34800	82.46500	-43.10	95.06
0.822	82.501500	1128	82.46500	82.53800	-43.79	59.25
0.823	82.564000	1127	82.53800	82.59000	-44.70	42.42
0.824	82.625000	1126	82.59000	82.66000	-45.06	56.91
0.825	82.694000	1125	82.66000	82.72800	-44.84	54.99
0.826	82.759000	1124	82.72800	82.79000	-44.78	50.98
0.827	82.825500	1123	82.79000	82.86100	-45.41	58.15
0.828	82.898000	1122	82.86100	82.93500	-46.22	60.23
0.829	82.970000	1121	82.93500	83.00500	-46.41	57.20
0.830	83.033500	1120	83.00500	83.06200	-46.45	46.66
0.831	83.101500	1119	83.06200	83.14100	-45.95	64.39
0.832	83.176000	1118	83.14100	83.21100	-45.51	57.72
0.833	83.246000	1117	83.21100	83.28100	-45.67	57.34
0.834	83.311500	1116	83.28100	83.34200	-45.47	50.02
0.835	83.370000	1115	83.34200	83.39800	-45.00	45.68
0.836	83.431500	1114	83.39800	83.46500	-45.22	54.83
0.837	83.503000	1113	83.46500	83.54100	-45.48	62.17
0.838	83.578000	1112	83.54100	83.61500	-45.48	60.69
0.839	83.648500	1111	83.61500	83.68200	-45.27	54.89
0.840	83.712000	1110	83.68200	83.74200	-44.92	49.33
0.841	83.775000	1109	83.74200	83.80800	-44.50	53.51
0.842	83.841000	1108	83.80800	83.87400	-44.16	54.08
0.843	83.925500	1107	83.87400	83.97700	-44.45	85.08
0.844	84.027000	1106	83.97700	84.07700	-45.28	82.07
0.845	84.109500	1105	84.07700	84.14200	-45.50	52.68
0.846	84.182500	1104	84.14200	84.22300	-45.34	66.34
0.847	84.269000	1103	84.22300	84.31500	-45.54	75.96
0.848	84.355000	1102	84.31500	84.39500	-45.84	65.67
0.849	84.435000	1101	84.39500	84.47500	-45.94	65.65
0.850	84.505500	1100	84.47500	84.53600	-45.75	50.25
0.851	84.569500	1099	84.53600	84.60300	-45.92	54.81
0.852	84.649000	1098	84.60300	84.69500	-46.18	75.01
0.853	84.730000	1097	84.69500	84.76500	-46.21	57.38
0.854	84.797000	1096	84.76500	84.82900	-46.28	52.58
0.855	84.866000	1095	84.82900	84.90300	-46.67	61.16
0.856	84.932000	1094	84.90300	84.96100	-46.76	47.58
0.857	84.998000	1093	84.96100	85.03500	-46.18	60.60
0.858	85.071500	1092	85.03500	85.10800	-45.52	59.62
0.859	85.137500	1091	85.10800	85.16700	-45.54	49.37
0.860	85.197500	1090	85.16700	85.22800	-45.62	49.86
0.861	85.257000	1089	85.22800	85.28600	-45.64	47.59
0.862	85.325000	1088	85.28600	85.36400	-45.86	64.47
0.863	85.412000	1087	85.36400	85.46000	-45.51	78.42
0.864	85.492000	1086	85.46000	85.52400	-44.71	52.65
0.865	85.564000	1085	85.52400	85.60400	-44.00	65.71
0.866	85.625000	1084	85.60400	85.64600	-43.69	34.78
0.867	85.696000	1083	85.64600	85.74600	-43.43	81.70
0.868	85.794000	1082	85.74600	85.84200	-44.28	79.50
0.869	85.872000	1081	85.84200	85.90200	-45.34	49.12
0.870	85.931000	1080	85.90200	85.96000	-45.82	47.92
0.871	85.993000	1079	85.96000	86.02600	-45.77	53.90
0.872	86.054000	1078	86.02600	86.08200	-45.13	46.79
0.873	86.109000	1077	86.08200	86.13600	-44.05	44.13
0.874	86.181500	1076	86.13600	86.22700	-43.00	75.88
0.875	86.273000	1075	86.22700	86.31900	-43.01	75.94
0.876	86.352000	1074	86.31900	86.38500	-44.08	54.63
0.877	86.427500	1073	86.38500	86.47000	-43.79	70.46
0.878	86.509500	1072	86.47000	86.54900	-43.37	65.16
0.879	86.579500	1071	86.54900	86.61000	-44.28	50.75
0.880	86.642500	1070	86.61000	86.67500	-44.88	54.00
0.881	86.712500	1069	86.67500	86.75000	-44.89	62.16
0.882	86.786000	1068	86.75000	86.82200	-44.58	59.67
0.883	86.863500	1067	86.82200	86.90500	-44.32	68.82
0.884	86.949500	1066	86.90500	86.99400	-44.43	73.72
0.885	87.022000	1065	86.99400	87.05000	-44.79	46.26
0.886	87.075000	1064	87.05000	87.10000	-45.13	41.79
0.887	87.127500	1063	87.10000	87.15500	-45.45	45.65
0.888	87.190000	1062	87.15500	87.22500	-45.52	58.12
0.889	87.267500	1061	87.22500	87.31000	-44.99	70.58
0.890	87.352500	1060	87.31000	87.39500	-44.89	70.54
0.891	87.437500	1059	87.39500	87.48000	-45.06	70.53
0.892	87.517500	1058	87.48000	87.55500	-44.78	62.21
0.893	87.600000	1057	87.55500	87.64500	-44.43	74.63
0.894	87.699000	1056	87.64500	87.75300	-43.91	89.19
0.895	87.795000	1055	87.75300	87.83700	-43.90	69.84
0.896	87.863000	1054	87.83700	87.88900	-44.45	43.26
0.897	87.922000	1053	87.88900	87.95500	-45.10	55.00
0.898	87.987000	1052	87.95500	88.01900	-45.15	53.50
0.899	88.043000	1051	88.01900	88.06700	-44.31	39.35
0.900	88.091500	1050	88.06700	88.11600	-43.30	40.83
0.901	88.150500	1049	88.11600	88.18500	-42.56	57.96
0.902	88.222000	1048	88.18500	88.25900	-43.12	62.10
0.903	88.288000	1047	88.25900	88.31700	-44.33	48.22
0.904	88.343500	1046	88.31700	88.37000	-45.15	44.19
0.905	88.417500	1045	88.37000	88.46500	-45.48	79.25
0.906	88.510000	1044	88.46500	88.55500	-45.03	75.00
0.907	88.580000	1043	88.55500	88.60500	-44.99	41.64
0.908	88.640000	1042	88.60500	88.67500	-45.69	58.25
0.909	88.715000	1041	88.67500	88.75500	-46.18	66.51
0.910	88.785500	1040	88.75500	88.81600	-46.14	50.33
0.911	88.850500	1039	88.81600	88.88500	-45.82	57.81
0.912	88.935000	1038	88.88500	88.98500	-44.95	83.32
0.913	89.038500	1037	88.98500	89.09200	-44.73	89.37
0.914	89.130500	1036	89.09200	89.16900	-44.82	64.57
0.915	89.198000	1035	89.16900	89.22700	-44.24	48.30
0.916	89.257000	1034	89.22700	89.28700	-43.36	50.01
0.917	89.321000	1033	89.28700	89.35500	-43.29	57.14
0.918	89.395000	1032	89.35500	89.43500	-44.24	67.00
0.919	89.477000	1031	89.43500	89.51900	-45.07	70.05
0.920	89.554000	1030	89.51900	89.58900	-45.24	58.47
0.921	89.618000	1029	89.58900	89.64700	-45.00	48.94
0.922	89.682000	1028	89.64700	89.71700	-44.80	57.62
0.923	89.751000	1027	89.71700	89.78500		56.85
0.924	89.811000	1026	89.78500	89.83700	-43.59	43.31
0.925	89.873500	1025	89.83700	89.91000	-43.54	61.27
0.926	89.950500	1024	89.91000	89.99100	-44.17	67.57
0.927	90.027000	1023	89.99100	90.06300	-45.34	59.19
0.928	90.097500	1022	90.06300	90.13200	-45.88	58.36
0.929	90.167000	1021	90.13200	90.20200	-45.92	58.38
0.930	90.238500	1020	90.20200	90.27500	-45.77	60.49
0.931	90.310000	1019	90.27500	90.34500		58.82
0.932	90.371000	1018	90.34500	90.39700	-45.03	43.77
0.933	90.427500	1017	90.39700	90.45800	-44.76	50.46
0.934	90.498000	1016	90.45800	90.53800	-44.84	67.66
0.935	90.573000	1015	90.53800	90.60800	-45.00	59.10
0.936	90.648000	1014	90.60800	90.68800	-44.98	68.10
0.937	90.722500	1013	90.68800	90.75700	-44.79	58.66
0.938	90.795500	1012	90.75700	90.83400	-44.90	65.75
0.939	90.876000	1011	90.83400	90.91800	-44.92	71.40
0.940	90.950500	1010	90.91800	90.98300	-44.76	55.72
0.941	91.019000	1009	90.98300	91.05500	-44.53	61.33
0.942	91.077000	1008	91.05500	91.09900	-44.40	37.81
0.943	91.135000	1007	91.09900	91.17100	-44.71	60.96
0.944	91.222500	1006	91.17100	91.27400	-45.91	87.22
0.945	91.309500	1005	91.27400	91.34500	-46.35	60.67
0.946	91.377500	1004	91.34500	91.41000	-46.09	55.14
0.947	91.440000	1003	91.41000	91.47000	-45.76	50.56
0.948	91.510000	1002	91.47000	91.55000	-45.19	67.90
0.949	91.587500	1001	91.55000	91.62500	-44.81	63.03
0.950	91.651500	1000	91.62500	91.67800	-44.79	45.20
0.951	91.705000	999	91.67800	91.73200	-44.88	45.68
0.952	91.776000	998	91.73200	91.82000	-45.01	74.16
0.953	91.868500	997	91.82000	91.91700	-45.39	82.10
0.954	91.952000	996	91.91700	91.98700	-45.51	58.87
0.955	92.012500	995	91.98700	92.03800	-45.28	42.73
0.956	92.068500	994	92.03800	92.09900	-45.00	51.83
0.957	92.142500	993	92.09900	92.18600	-44.88	72.94
0.958	92.220500	992	92.18600	92.25500	-45.32	58.73
0.959	92.278500	991	92.25500	92.30200	-46.19	39.61
0.960	92.332500	990	92.30200	92.36300	-46.80	51.40
0.961	92.416500	989	92.36300	92.47000	-46.91	90.60
0.962	92.522500	988	92.47000	92.57500	-46.04	88.92
0.963	92.604000	987	92.57500	92.63300	-45.38	48.98
0.964	92.661500	986	92.63300	92.69000	-45.48	48.55
0.965	92.716500	985	92.69000	92.74300	-45.38	44.92
0.966	92.772000	984	92.74300	92.80100	-45.28	49.02
0.967	92.840000	983	92.80100	92.87900	-45.17	66.25
0.968	92.910500	982	92.87900	92.94200	-45.46	53.68
0.969	92.967000	981	92.94200	92.99200	-45.56	42.69
0.970	93.021000	980	92.99200	93.05000	-45.48	49.22
0.971	93.079000	979	93.05000	93.10800	-45.64	49.06
0.972	93.142000	978	93.10800	93.17600	-45.92	58.37
0.973	93.220500	977	93.17600	93.26500	-45.95	75.51
0.974	93.302500	976	93.26500	93.34000	-46.18	63.81
0.975	93.375000	975	93.34000	93.41000	-46.30	59.88
0.976	93.455000	974	93.41000	93.50000	-46.13	76.20
0.977	93.538500	973	93.50000	93.57700	-45.62	65.44
0.978	93.604000	972	93.57700	93.63100	-44.46	46.22
0.979	93.668500	971	93.63100	93.70600	-43.55	63.64
0.980	93.750000	970	93.70600	93.79400	-43.12	74.79
0.981	93.831500	969	93.79400	93.86900	-44.34	63.05
0.982	93.898500	968	93.86900	93.92800	-45.10	50.75
0.983	93.962500	967	93.92800	93.99700	-45.89	58.24
0.984	94.020500	966	93.99700	94.04400	-46.03	40.03
0.985	94.065000	965	94.04400	94.08600	-45.62	36.37
0.986	94.116000	964	94.08600	94.14600	-45.17	50.75
0.987	94.197500	963	94.14600	94.24900	-44.26	87.96
0.988	94.306000	962	94.24900	94.36300	-43.97	97.07
0.989	94.429000	961	94.36300	94.49500	-43.68	112.77
0.990	94.535500	960	94.49500	94.57600	-43.05	69.37
0.991	94.600000	959	94.57600	94.62400	-43.09	41.34
0.992	94.654500	958	94.62400	94.68500	-43.97	51.57
0.993	94.740000	957	94.68500	94.79500	-45.24	93.86
0.994	94.838500	956	94.79500	94.88200	-45.76	73.63
0.995	94.917500	955	94.88200	94.95300	-45.29	61.03
0.996	94.986000	954	94.95300	95.01900	-44.73	55.70
0.997	95.055000	953	95.01900	95.09100	-44.68	61.79
0.998	95.123000	952	95.09100	95.15500	-44.65	54.22
0.999	95.195000	951	95.15500	95.23500	-44.23	68.13
1.000	95.271000	950	95.23500	95.30700	-44.27	61.74
1.001	95.336500	949	95.30700	95.36600	-44.54	50.25
1.002	95.395500	948	95.36600	95.42500	-44.56	49.80
1.003	95.457000	947	95.42500	95.48900	-44.37	54.61
1.004	95.525500	946	95.48900	95.56200	-44.24	62.72
1.005	95.588500	945	95.56200	95.61500	-44.47	45.14
1.006	95.663000	944	95.61500	95.71100	-44.56	81.43
1.007	95.757500	943	95.71100	95.80400	-44.43	79.69
1.008	95.835500	942	95.80400	95.86700	-44.62	54.22
1.009	95.919500	941	95.86700	95.97200	-44.50	89.67
1.010	96.010000	940	95.97200	96.04800	-44.65	64.81
1.011	96.083000	939	96.04800	96.11800	-44.97	60.03
1.012	96.153000	938	96.11800	96.18800	-45.19	60.07
1.013	96.212000	937	96.18800	96.23600	-44.91	41.36
1.014	96.269000	936	96.23600	96.30200	-44.42	57.36
1.015	96.328500	935	96.30200	96.35500	-44.27	45.07
1.016	96.375000	934	96.35500	96.39500	-44.45	34.33
1.017	96.416000	933	96.39500	96.43700	-44.67	36.05
1.018	96.462000	932	96.43700	96.48700	-44.61	42.92
1.019	96.528500	931	96.48700	96.57000	-44.47	71.16
1.020	96.608000	930	96.57000	96.64600	-44.76	65.47
1.021	96.676500	929	96.64600	96.70700	-44.96	52.25
1.022	96.733000	928	96.70700	96.75900	-44.81	44.76
1.023	96.789500	927	96.75900	96.82000	-44.62	51.79
1.024	96.857500	926	96.82000	96.89500	-44.85	64.58
1.025	96.936500	925	96.89500	96.97800	-45.19	71.32
1.026	97.030500	924	96.97800	97.08300	-44.80	89.89
1.027	97.120500	923	97.08300	97.15800	-44.19	64.53
1.028	97.188000	922	97.15800	97.21800	-44.26	51.01
1.029	97.251500	921	97.21800	97.28500	-44.69	57.68
1.030	97.332500	920	97.28500	97.38000	-45.16	81.38
1.031	97.418000	919	97.38000	97.45600	-44.95	65.42
1.032	97.480500	918	97.45600	97.50500	-44.51	42.34
1.033	97.539000	917	97.50500	97.57300	-44.01	58.69
1.034	97.612000	916	97.57300	97.65100	-44.33	67.25
1.035	97.693000	915	97.65100	97.73500	-45.39	72.21
1.036	97.769500	914	97.73500	97.80400	-45.88	59.36
1.037	97.859500	913	97.80400	97.91500	-45.13	95.81
1.038	97.951000	912	97.91500	97.98700	-44.43	62.25
1.039	98.019500	911	97.98700	98.05200	-44.23	56.00
1.040	98.107500	910	98.05200	98.16300	-44.39	95.26
1.041	98.193500	909	98.16300	98.22400	-44.61	52.34
1.042	98.250500	908	98.22400	98.27700	-44.89	45.89
1.043	98.305000	907	98.27700	98.33300	-45.25	47.92
1.044	98.361500	906	98.33300	98.39000	-45.33	49.36
1.045	98.417500	905	98.39000	98.44500	-44.84	47.40
1.046	98.490000	904	98.44500	98.53500	-43.93	77.53
1.047	98.576500	903	98.53500	98.61800	-43.95	70.97
1.048	98.647000	902	98.61800	98.67600	-44.87	50.00
1.049	98.708500	901	98.67600	98.74100	-45.51	56.16
1.050	98.774500	900	98.74100	98.80800	-45.61	56.95
1.051	98.856000	899	98.80800	98.90400	-45.25	82.67
1.052	98.938500	898	98.90400	98.97300	-44.71	59.77
1.053	99.006500	897	98.97300	99.04000	-43.82	57.33
1.054	99.081000	896	99.04000	99.12200	-44.27	70.97
1.055	99.158000	895	99.12200	99.19400	-44.49	61.66
1.056	99.224500	894	99.19400	99.25500	-44.87	52.75
1.057	99.290000	893	99.25500	99.32500	-45.10	59.85
1.058	99.349000	892	99.32500	99.37300	-45.30	41.83
1.059	99.392000	891	99.37300	99.41100	-45.44	32.88
1.060	99.437500	890	99.41100	99.46400	-45.77	45.26
1.061	99.499000	889	99.46400	99.53400	-45.98	60.38
1.062	99.570000	888	99.53400	99.60600	-45.46	62.57
1.063	99.645000	887	99.60600	99.68400	-44.70	66.89
1.064	99.710500	886	99.68400	99.73700	-44.49	46.04
1.065	99.767000	885	99.73700	99.79700	-44.67	51.65
1.066	99.833500	884	99.79700	99.87000	-44.87	63.38
1.067	99.900000	883	99.87000	99.93000	-45.34	51.86
1.068	99.964000	882	99.93000	99.99800	-45.75	58.84
1.069	100.040000	881	99.99800	100.08200	-46.02	72.23
1.070	100.115000	880	100.08200	100.14700	-45.71	56.87
1.071	100.199000	879	100.14700	100.25100	-44.89	89.62
1.072	100.290000	878	100.25100	100.32800	-44.32	66.58
1.073	100.370000	877	100.32800	100.41200	-45.45	72.72
1.074	100.448000	876	100.41200	100.48400	-45.93	61.80
1.075	100.510000	875	100.48400	100.53700	-45.82	46.02
1.076	100.562000	874	100.53700	100.58700	-45.16	43.27
1.077	100.626000	873	100.58700	100.66400	-44.71	66.31
1.078	100.709000	872	100.66400	100.75400	-44.31	77.94
1.079	100.799000	871	100.75400	100.84400	-44.98	77.96
1.080	100.893000	870	100.84400	100.94200	-45.51	85.55
1.081	100.968000	869	100.94200	100.99300	-44.97	43.32
1.082	101.020000	868	100.99300	101.04800	-44.63	47.66
1.083	101.073000	867	101.04800	101.09900	-44.49	44.41
1.084	101.145000	866	101.09900	101.19200	-44.75	81.24
1.085	101.225000	865	101.19200	101.25700	-45.57	55.72
1.086	101.278000	864	101.25700	101.30000	-45.67	37.14
1.087	101.325000	863	101.30000	101.34900	-45.54	42.59
1.088	101.379000	862	101.34900	101.40800	-45.39	50.98
1.089	101.438000	861	101.40800	101.46700	-45.20	52.09
1.090	101.499000	860	101.46700	101.53000	-45.07	54.29
1.091	101.567000	859	101.53000	101.60500	-45.09	65.19
1.092	101.641000	858	101.60500	101.67600	-44.88	62.18
1.093	101.715000	857	101.67600	101.75400	-44.32	67.32
1.094	101.787000	856	101.75400	101.82000	-43.86	57.44
1.095	101.859000	855	101.82000	101.89700	-44.16	67.39
1.096	101.951000	854	101.89700	102.00500	-44.54	93.59
1.097	102.041000	853	102.00500	102.07700	-44.26	63.03
1.098	102.124000	852	102.07700	102.17200	-45.02	82.48
1.099	102.233000	851	102.17200	102.29300	-45.18	104.47
1.100	102.319000	850	102.29300	102.34500	-45.21	45.64
1.101	102.371000	849	102.34500	102.39700	-45.61	45.24
1.102	102.427000	848	102.39700	102.45800	-46.11	52.74
1.103	102.492000	847	102.45800	102.52500	-46.82	58.63
1.104	102.563000	846	102.52500	102.60100	-47.06	66.19
1.105	102.635000	845	102.60100	102.67000		60.29
1.106	102.711000	844	102.67000	102.75200		70.81
1.107	102.784000	843	102.75200	102.81500	-46.19	54.91
1.108	102.850000	842	102.81500	102.88500		61.25
1.109	102.933000	841	102.88500	102.98000	-46.02	82.74
1.110	103.007000	840	102.98000	103.03500	-45.92	47.90
1.111	103.065000	839	103.03500	103.09500	-45.75	52.24
1.112	103.132000	838	103.09500	103.16900	-45.24	64.19
1.113	103.211000	837	103.16900	103.25300	-44.12	72.95
1.114	103.284000	836	103.25300	103.31400	-43.32	53.64
1.115	103.336000	835	103.31400	103.35800	-43.15	38.50
1.116	103.381000	834	103.35800	103.40400	-43.28	40.00
1.117	103.440000	833	103.40400	103.47600	-43.49	62.45
1.118	103.510000	832	103.47600	103.54500	-43.98	60.70
1.119	103.574000	831	103.54500	103.60300	-44.53	49.88
1.120	103.642000	830	103.60300	103.68100	-44.88	68.61
1.121	103.709000	829	103.68100	103.73700	-45.05	48.58
1.122	103.764000	828	103.73700	103.79200	-44.89	47.74
1.123	103.823000	827	103.79200	103.85500	-44.87	55.34
1.124	103.878000	826	103.85500	103.90100	-45.04	40.26
1.125	103.926000	825	103.90100	103.95100	-45.08	43.32
1.126	103.972000	824	103.95100	103.99400	-44.82	37.89
1.127	104.022000	823	103.99400	104.05000	-43.92	48.55
1.128	104.082000	822	104.05000	104.11500	-43.11	56.63
1.129	104.150000	821	104.11500	104.18400	-43.36	60.45
1.130	104.211000	820	104.18400	104.23800	-44.46	46.22
1.131	104.264000	819	104.23800	104.29100	-45.05	46.65
1.132	104.319000	818	104.29100	104.34700	-45.62	48.37
1.133	104.374000	817	104.34700	104.40100	-45.54	46.92
1.134	104.430000	816	104.40100	104.46000	-45.13	51.80
1.135	104.493000	815	104.46000	104.52700		58.84
1.136	104.575000	814	104.52700	104.62200	-43.93	82.87
1.137	104.675000	813	104.62200	104.72800	-43.63	91.63
1.138	104.768000	812	104.72800	104.80800	-43.20	69.90
1.139	104.834000	811	104.80800	104.86000	-43.11	45.76
1.140	104.891000	810	104.86000	104.92300	-43.19	54.57
1.141	104.960000	809	104.92300	104.99600	-43.48	63.78
1.142	105.037000	808	104.99600	105.07700	-44.38	71.59
1.143	105.116000	807	105.07700	105.15500	-45.31	67.71
1.144	105.175000	806	105.15500	105.19600		35.95
1.145	105.219000	805	105.19600	105.24300	-45.76	40.97
1.146	105.272000	804	105.24300	105.30200	-45.49	51.28
1.147	105.342000	803	105.30200	105.38200	-44.43	70.67
1.148	105.432000	802	105.38200	105.48200	-43.37	87.48
1.149	105.526000	801	105.48200	105.57100	-43.85	77.69
1.150	105.602000	800	105.57100	105.63200	-44.93	53.60
1.151	105.658000	799	105.63200	105.68400	-45.32	44.92
1.152	105.715000	798	105.68400	105.74600	-45.40	54.61
1.153	105.781000	797	105.74600	105.81600		61.37
1.154	105.850000	796	105.81600	105.88300	-45.64	58.61
1.155	105.927000	795	105.88300	105.97000	-45.15	76.27
1.156	106.007000	794	105.97000	106.04400	-44.81	65.11
1.157	106.075000	793	106.04400	106.10600	-44.47	54.38
1.158	106.132000	792	106.10600	106.15900	-44.06	46.27
1.159	106.183000	791	106.15900	106.20600	-43.65	41.44
1.160	106.234000	790	106.20600	106.26300	-43.39	49.58
1.161	106.296000	789	106.26300	106.32900	-43.65	57.68
1.162	106.367000	788	106.32900	106.40500	-44.34	66.84
1.163	106.434000	787	106.40500	106.46300	-44.76	50.41
1.164	106.497000	786	106.46300	106.53100	-44.54	60.27
1.165	106.567000	785	106.53100	106.60200	-44.63	62.31
1.166	106.648000	784	106.60200	106.69400	-44.58	80.16
1.167	106.737000	783	106.69400	106.77900	-43.93	74.53
1.168	106.806000	782	106.77900	106.83400	-43.14	48.51
1.169	106.859000	781	106.83400	106.88500	-42.86	44.66
1.170	106.915000	780	106.88500	106.94500	-43.49	52.24
1.171	106.975000	779	106.94500	107.00500	-44.41	52.98
1.172	107.039000	778	107.00500	107.07300	-45.26	59.79
1.173	107.102000	777	107.07300	107.13000	-45.39	49.82
1.174	107.158000	776	107.13000	107.18600	-45.82	49.33
1.175	107.227000	775	107.18600	107.26800	-45.79	71.26
1.176	107.299000	774	107.26800	107.32900	-45.61	54.06
1.177	107.363000	773	107.32900	107.39700	-46.00	59.21
1.178	107.449000	772	107.39700	107.50100	-46.38	91.19
1.179	107.541000	771	107.50100	107.58200	-46.20	71.23
1.180	107.612000	770	107.58200	107.64200	-45.95	52.86
1.181	107.681000	769	107.64200	107.72100	-45.73	69.09
1.182	107.757000	768	107.72100	107.79400	-45.82	64.07
1.183	107.828000	767	107.79400	107.86100	-45.89	59.25
1.184	107.888000	766	107.86100	107.91600	-45.30	48.28
1.185	107.960000	765	107.91600	108.00400	-44.48	76.96
1.186	108.036000	764	108.00400	108.06800	-44.01	56.17
1.187	108.093000	763	108.06800	108.11800	-44.42	43.52
1.188	108.151000	762	108.11800	108.18400	-44.77	58.53
1.189	108.210000	761	108.18400	108.23700	-44.41	46.59
1.190	108.271000	760	108.23700	108.30500	-43.70	59.48
1.191	108.344000	759	108.30500	108.38200		67.53
1.192	108.417000	758	108.38200	108.45200	-44.17	61.96
1.193	108.485000	757	108.45200	108.51800	-45.23	57.07
1.194	108.547000	756	108.51800	108.57700	-45.82	52.67
1.195	108.618000	755	108.57700	108.65800	-45.63	70.45
1.196	108.688000	754	108.65800	108.71700	-45.10	52.47
1.197	108.754000	753	108.71700	108.79000	-45.06	63.66
1.198	108.812000	752	108.79000	108.83500	-45.53	39.51
1.199	108.863000	751	108.83500	108.89100	-46.11	49.17
1.200	108.934000	750	108.89100	108.97800	-47.06	75.95
1.201	109.016000	749	108.97800	109.05500	-46.81	68.05
1.202	109.078000	748	109.05500	109.10100	-45.63	40.52
1.203	109.128000	747	109.10100	109.15500	-45.08	47.29
1.204	109.180000	746	109.15500	109.20500	-44.90	43.91
1.205	109.242000	745	109.20500	109.27900	-44.92	64.70
1.206	109.309000	744	109.27900	109.34000	-44.51	53.85
1.207	109.370000	743	109.34000	109.40000	-43.97	52.70
1.208	109.431000	742	109.40000	109.46300	-44.10	54.89
1.209	109.492000	741	109.46300	109.52100	-44.55	51.30
1.210	109.547000	740	109.52100	109.57300	-44.73	45.30
1.211	109.623000	739	109.57300	109.67300	-44.48	87.83
1.212	109.706000	738	109.67300	109.73900	-44.47	58.49
1.213	109.771000	737	109.73900	109.80300	-44.38	55.89
1.214	109.841000	736	109.80300	109.87800	-43.92	65.68
1.215	109.922000	735	109.87800	109.96700	-43.96	79.04
1.216	110.013000	734	109.96700	110.06000	-44.47	81.23
1.217	110.100000	733	110.06000	110.13900	-45.22	69.70
1.218	110.167000	732	110.13900	110.19500	-45.50	49.16
1.219	110.231000	731	110.19500	110.26800	-45.59	63.31
1.220	110.304000	730	110.26800	110.34000	-45.47	63.63
1.221	110.373000	729	110.34000	110.40500	-45.05	57.31
1.222	110.482000	728	110.40500	110.55900	-44.08	134.76
1.223	110.614000	727	110.55900	110.66800	-43.29	95.54
1.224	110.716000	726	110.66800	110.76400	-43.82	84.57
1.225	110.794000	725	110.76400	110.82500	-44.53	53.65
1.226	110.852000	724	110.82500	110.87800	-44.54	46.51
1.227	110.913000	723	110.87800	110.94800	-44.12	61.10
1.228	110.987000	722	110.94800	111.02600	-44.07	68.80
1.229	111.058000	721	111.02600	111.09100	-44.39	56.57
1.230	111.135000	720	111.09100	111.17800		76.34
1.231	111.227000	719	111.17800	111.27600	-44.68	85.35
1.232	111.318000	718	111.27600	111.36000	-45.43	74.14
1.233	111.382000	717	111.36000	111.40300	-45.69	37.52
1.234	111.432000	716	111.40300	111.46100	-45.91	50.83
1.235	111.489000	715	111.46100	111.51600	-45.41	48.18
1.236	111.561000	714	111.51600	111.60500	-45.21	77.78
1.237	111.642000	713	111.60500	111.68000	-45.41	65.75
1.238	111.713000	712	111.68000	111.74700	-45.39	58.48
1.239	111.784000	711	111.74700	111.82100	-45.40	65.03
1.240	111.849000	710	111.82100	111.87600	-45.89	48.59
1.241	111.903000	709	111.87600	111.93000	-46.28	47.27
1.242	111.968000	708	111.93000	112.00500	-46.43	65.86
1.243	112.046000	707	112.00500	112.08700	-46.54	72.17
1.244	112.126000	706	112.08700	112.16600	-46.79	69.10
1.245	112.190000	705	112.16600	112.21400	-46.27	42.49
1.246	112.247000	704	112.21400	112.28000	-45.46	57.97
1.247	112.311000	703	112.28000	112.34100	-45.45	53.81
1.248	112.368000	702	112.34100	112.39400	-45.82	46.14
1.249	112.423000	701	112.39400	112.45200	-46.32	51.21
1.250	112.487000	700	112.45200	112.52100	-46.49	61.18
1.251	112.558000	699	112.52100	112.59500	-46.43	65.22
1.252	112.632000	698	112.59500	112.66800	-46.03	63.64
1.253	112.696000	697	112.66800	112.72400	-45.46	49.58
1.254	112.749000	696	112.72400	112.77400	-45.03	44.09
1.255	112.805000	695	112.77400	112.83500	-44.57	54.02
1.256	112.873000	694	112.83500	112.91100	-43.91	67.26
1.257	112.946000	693	112.91100	112.98100	-43.26	61.76
1.258	113.020000	692	112.98100	113.05900	-43.24	68.38
1.259	113.093000	691	113.05900	113.12700	-44.15	60.12
1.260	113.151000	690	113.12700	113.17600	-45.20	43.53
1.261	113.210000	689	113.17600	113.24500	-46.21	60.51
1.262	113.268000	688	113.24500	113.29100	-46.46	40.57
1.263	113.330000	687	113.29100	113.36900	-45.71	69.38
1.264	113.412000	686	113.36900	113.45500	-44.46	75.68
1.265	113.495000	685	113.45500	113.53500	-43.71	70.65
1.266	113.562000	684	113.53500	113.58900	-43.52	47.85
1.267	113.626000	683	113.58900	113.66200	-43.40	63.96
1.268	113.696000	682	113.66200	113.73000	-43.75	60.43
1.269	113.760000	681	113.73000	113.79000	-44.55	53.00
1.270	113.827000	680	113.79000	113.86400	-44.92	65.79
1.271	113.901000	679	113.86400	113.93800	-44.64	64.54
1.272	113.972000	678	113.93800	114.00700	-44.62	61.75
1.273	114.041000	677	114.00700	114.07500	-44.72	59.77
1.274	114.103000	676	114.07500	114.13000	-44.66	48.62
1.275	114.169000	675	114.13000	114.20800	-44.50	69.01
1.276	114.254000	674	114.20800	114.29900	-43.78	80.81
1.277	114.332000	673	114.29900	114.36500	-43.99	58.09
1.278	114.398000	672	114.36500	114.43100	-44.84	58.45
1.279	114.463000	671	114.43100	114.49500	-45.49	56.73
1.280	114.527000	670	114.49500	114.55900	-46.13	56.36
1.281	114.600000	669	114.55900	114.64100	-46.09	72.65
1.282	114.674000	668	114.64100	114.70600	-45.56	57.30
1.283	114.736000	667	114.70600	114.76600	-45.49	53.17
1.284	114.790000	666	114.76600	114.81500	-45.71	43.26
1.285	114.852000	665	114.81500	114.88800	-45.43	64.89
1.286	114.924000	664	114.88800	114.96000	-44.66	63.43
1.287	115.013000	663	114.96000	115.06700	-44.96	94.98
1.288	115.147000	662	115.06700	115.22700	-47.71	141.13
1.289	115.264000	661	115.22700	115.30200	-48.04	66.84
1.290	115.332000	660	115.30200	115.36100	-46.90	52.32
1.291	115.386000	659	115.36100	115.41200	-46.03	45.39
1.292	115.439000	658	115.41200	115.46700	-45.46	48.72
1.293	115.492000	657	115.46700	115.51700	-44.90	44.22
1.294	115.560000	656	115.51700	115.60300	-43.92	76.17
1.295	115.624000	655	115.60300	115.64500	-43.49	36.73
1.296	115.680000	654	115.64500	115.71500	-43.83	62.18
1.297	115.746000	653	115.71500	115.77800	-44.97	55.91
1.298	115.799000	652	115.77800	115.82000	-46.03	37.15
1.299	115.846000	651	115.82000	115.87200	-46.66	46.07
1.300	115.913000	650	115.87200	115.95500	-46.48	73.60
1.301	116.005000	649	115.95500	116.05500	-46.56	88.66
1.302	116.087000	648	116.05500	116.11800	-47.04	56.08
1.303	116.141000	647	116.11800	116.16300	-47.06	39.35
1.304	116.186000	646	116.16300	116.21000	-46.84	42.03
1.305	116.245000	645	116.21000	116.28000	-46.23	62.09
1.306	116.309000	644	116.28000	116.33900	-45.72	52.42
1.307	116.365000	643	116.33900	116.39000	-45.69	45.16
1.308	116.420000	642	116.39000	116.45000	-45.71	53.56
1.309	116.485000	641	116.45000	116.52000	-45.31	61.78
1.310	116.558000	640	116.52000	116.59500	-45.43	66.56
1.311	116.635000	639	116.59500	116.67500	-45.09	71.00
1.312	116.713000	638	116.67500	116.75000	-45.66	66.45
1.313	116.779000	637	116.75000	116.80800	-46.18	51.48
1.314	116.831000	636	116.80800	116.85400	-46.51	40.58
1.315	116.889000	635	116.85400	116.92500	-46.35	63.82
1.316	116.967000	634	116.92500	117.00900	-45.83	74.34
1.317	117.034000	633	117.00900	117.06000	-44.21	45.14
1.318	117.091000	632	117.06000	117.12300	-44.29	55.84
1.319	117.153000	631	117.12300	117.18300	-44.73	53.81
1.320	117.212000	630	117.18300	117.24100	-45.37	51.45
1.321	117.272000	629	117.24100	117.30200	-45.73	54.29
1.322	117.329000	628	117.30200	117.35600	-45.46	47.78
1.323	117.381000	627	117.35600	117.40600	-45.15	44.55
1.324	117.435000	626	117.40600	117.46400	-45.21	50.89
1.325	117.502000	625	117.46400	117.54100	-45.45	68.96
1.326	117.596000	624	117.54100	117.65000	-44.24	96.66
1.327	117.691000	623	117.65000	117.73200	-44.06	73.34
1.328	117.769000	622	117.73200	117.80500	-45.46	64.46
1.329	117.842000	621	117.80500	117.87900	-45.38	65.58
1.330	117.910000	620	117.87900	117.94200	-44.29	56.69
1.331	117.970000	619	117.94200	117.99800	-43.66	49.52
1.332	118.023000	618	117.99800	118.04800	-43.53	44.19
1.333	118.094000	617	118.04800	118.14000	-43.48	81.97
1.334	118.184000	616	118.14000	118.22900	-44.15	78.96
1.335	118.255000	615	118.22900	118.28100	-45.12	46.46
1.336	118.303000	614	118.28100	118.32600	-45.64	39.87
1.337	118.352000	613	118.32600	118.37700	-46.07	45.96
1.338	118.406000	612	118.37700	118.43500		51.25
1.339	118.466000	611	118.43500	118.49600	-45.81	54.24
1.340	118.529000	610	118.49600	118.56200	-44.97	58.44
1.341	118.591000	609	118.56200	118.62000	-44.79	52.02
1.342	118.648000	608	118.62000	118.67700	-44.86	50.35
1.343	118.707000	607	118.67700	118.73700	-44.79	53.95
1.344	118.778000	606	118.73700	118.82000	-44.53	73.79
1.345	118.868000	605	118.82000	118.91500	-44.02	84.61
1.346	118.954000	604	118.91500	118.99200	-43.28	68.45
1.347	119.028000	603	118.99200	119.06300	-43.38	62.95
1.348	119.093000	602	119.06300	119.12200	-44.16	53.19
1.349	119.147000	601	119.12200	119.17300	-45.28	44.83
1.350	119.204000	600	119.17300	119.23500	-46.09	55.91
1.351	119.264000	599	119.23500	119.29400	-46.24	52.57
1.352	119.327000	598	119.29400	119.36000	-45.91	58.80
1.353	119.398000	597	119.36000	119.43700	-45.66	68.31
1.354	119.502000	596	119.43700	119.56700	-45.38	116.51
1.355	119.615000	595	119.56700	119.66400	-44.36	85.83
1.356	119.695000	594	119.66400	119.72700	-43.86	56.55
1.357	119.753000	593	119.72700	119.77900	-43.32	46.29
1.358	119.803000	592	119.77900	119.82800	-43.69	43.37
1.359	119.853000	591	119.82800	119.87800	-44.19	45.11
1.360	119.915000	590	119.87800	119.95100	-44.75	65.03
1.361	119.990000	589	119.95100	120.02900	-45.57	69.10
1.362	120.058000	588	120.02900	120.08600	-45.85	51.27
1.363	120.111000	587	120.08600	120.13600	-45.48	44.58
1.364	120.169000	586	120.13600	120.20200	-44.92	58.18
1.365	120.231000	585	120.20200	120.26100	-44.86	52.94
1.366	120.293000	584	120.26100	120.32500	-45.04	57.17
1.367	120.365000	583	120.32500	120.40500	-45.35	71.33
1.368	120.445000	582	120.40500	120.48500	-45.56	71.33
1.369	120.525000	581	120.48500	120.56400	-45.44	70.51
1.370	120.595000	580	120.56400	120.62600		54.83
1.371	120.650000	579	120.62600	120.67300	-46.04	42.14
1.372	120.700000	578	120.67300	120.72600	-46.19	47.43
1.373	120.759000	577	120.72600	120.79200	-46.31	58.44
1.374	120.823000	576	120.79200	120.85300	-46.04	54.30
1.375	120.876000	575	120.85300	120.89900	-45.62	41.64
1.376	120.928000	574	120.89900	120.95700	-45.29	51.42
1.377	120.980000	573	120.95700	121.00300	-44.97	40.83
1.378	121.034000	572	121.00300	121.06500	-44.93	55.17
1.379	121.094000	571	121.06500	121.12300	-45.37	51.94
1.380	121.150000	570	121.12300	121.17700	-45.63	48.46
1.381	121.209000	569	121.17700	121.24000	-45.47	55.62
1.382	121.282000	568	121.24000	121.32400	-45.17	74.87
1.383	121.365000	567	121.32400	121.40500	-45.00	72.57
1.384	121.437000	566	121.40500	121.46900	-45.01	56.76
1.385	121.512000	565	121.46900	121.55500	-45.27	77.07
1.386	121.577000	564	121.55500	121.59900	-45.02	39.06
1.387	121.632000	563	121.59900	121.66400	-44.68	58.52
1.388	121.695000	562	121.66400	121.72600	-45.03	55.39
1.389	121.758000	561	121.72600	121.79000	-45.65	57.21
1.390	121.833000	560	121.79000	121.87600	-45.53	76.88
1.391	121.919000	559	121.87600	121.96200	-44.53	76.27
1.392	121.987000	558	121.96200	122.01300	-44.57	45.55
1.393	122.035000	557	122.01300	122.05800	-44.89	40.23
1.394	122.098000	556	122.05800	122.13800	-45.02	71.71
1.395	122.169000	555	122.13800	122.20000	-45.11	55.74
1.396	122.240000	554	122.20000	122.28000	-45.20	71.57
1.397	122.332000	553	122.28000	122.38300	-44.95	92.18
1.398	122.409000	552	122.38300	122.43500	-44.40	46.27
1.399	122.457000	551	122.43500	122.47900	-44.16	39.43
1.400	122.513000	550	122.47900	122.54600	-44.30	60.43
1.401	122.593000	549	122.54600	122.64000	-44.75	84.10
1.402	122.680000	548	122.64000	122.71900	-45.04	70.39
1.403	122.754000	547	122.71900	122.78800	-44.83	61.88
1.404	122.809000	546	122.78800	122.83100	-44.94	39.01
1.405	122.859000	545	122.83100	122.88700	-45.37	49.64
1.406	122.912000	544	122.88700	122.93800	-45.70	45.55
1.407	122.964000	543	122.93800	122.99000	-45.96	46.96
1.408	123.017000	542	122.99000	123.04400	-45.59	48.25
1.409	123.079000	541	123.04400	123.11400	-44.88	63.15
1.410	123.143000	540	123.11400	123.17200	-44.25	51.28
1.411	123.204000	539	123.17200	123.23500	-44.38	57.00
1.412	123.266000	538	123.23500	123.29800	-44.39	55.75
1.413	123.340000	537	123.29800	123.38200	-44.41	75.61
1.414	123.418000	536	123.38200	123.45400	-45.30	64.64
1.415	123.484000	535	123.45400	123.51400	-46.16	53.22
1.416	123.550000	534	123.51400	123.58600	-46.46	64.65
1.417	123.626000	533	123.58600	123.66600	-46.26	71.02
1.418	123.704000	532	123.66600	123.74300	-45.56	69.22
1.419	123.774000	531	123.74300	123.80500	-44.56	55.24
1.420	123.855000	530	123.80500	123.90500	-43.73	89.29
1.421	123.939000	529	123.90500	123.97400	-43.65	61.78
1.422	124.004000	528	123.97400	124.03500	-44.67	53.92
1.423	124.061000	527	124.03500	124.08600	-45.50	46.22
1.424	124.123000	526	124.08600	124.16000	-45.54	65.64
1.425	124.195000	525	124.16000	124.22900	-44.91	61.56
1.426	124.271000	524	124.22900	124.31300	-44.50	75.03
1.427	124.346000	523	124.31300	124.37900	-44.36	59.32
1.428	124.421000	522	124.37900	124.46200	-44.85	74.16
1.429	124.490000	521	124.46200	124.51900	-45.29	51.16
1.430	124.562000	520	124.51900	124.60500	-44.88	76.84
1.431	124.660000	519	124.60500	124.71500	-44.15	98.34
1.432	124.749000	518	124.71500	124.78200	-43.50	60.15
1.433	124.816000	517	124.78200	124.85000	-43.73	60.56
1.434	124.892000	516	124.85000	124.93500	-44.21	76.01
1.435	124.967000	515	124.93500	124.99900	-44.18	57.34
1.436	125.028000	514	124.99900	125.05800	-44.05	52.53
1.437	125.088000	513	125.05800	125.11700	-44.43	52.48
1.438	125.154000	512	125.11700	125.19200	-45.20	67.93
1.439	125.231000	511	125.19200	125.27000	-45.84	69.31
1.440	125.297000	510	125.27000	125.32500	-45.96	49.53
1.441	125.358000	509	125.32500	125.39100	-45.57	58.40
1.442	125.433000	508	125.39100	125.47500	-45.02	75.44
1.443	125.505000	507	125.47500	125.53500	-44.79	53.54
1.444	125.570000	506	125.53500	125.60500	-45.18	62.76
1.445	125.633000	505	125.60500	125.66200	-45.95	51.12
1.446	125.683000	504	125.66200	125.70500	-46.25	38.35
1.447	125.727000	503	125.70500	125.74900	-45.81	39.14
1.448	125.784000	502	125.74900	125.81800	-44.85	62.10
1.449	125.865000	501	125.81800	125.91200	-43.93	83.53
1.450	125.941000	500	125.91200	125.97000	-44.51	52.67
1.451	125.995000	499	125.97000	126.02000	-45.35	44.60
1.452	126.052000	498	126.02000	126.08500	-45.83	58.15
1.453	126.121000	497	126.08500	126.15700	-45.87	64.01
1.454	126.209000	496	126.15700	126.26100	-44.99	93.45
1.455	126.295000	495	126.26100	126.32900	-43.62	60.41
1.456	126.367000	494	126.32900	126.40500	-43.52	68.48
1.457	126.443000	493	126.40500	126.48100	-44.03	68.48
1.458	126.514000	492	126.48100	126.54800	-44.53	59.46
1.459	126.589000	491	126.54800	126.63000	-45.44	73.56
1.460	126.663000	490	126.63000	126.69700	-46.49	60.37
1.461	126.737000	489	126.69700	126.77700	-46.30	70.88
1.462	126.819000	488	126.77700	126.86000	-45.41	74.74
1.463	126.892000	487	126.86000	126.92400	-45.66	57.10
1.464	126.954000	486	126.92400	126.98500	-45.80	54.85
1.465	127.028000	485	126.98500	127.07100	-45.78	77.25
1.466	127.109000	484	127.07100	127.14800	-45.50	68.61
1.467	127.177000	483	127.14800	127.20600	-45.03	52.16
1.468	127.240000	482	127.20600	127.27300	-44.49	60.08
1.469	127.308000	481	127.27300	127.34300	-44.42	62.49
1.470	127.376000	480	127.34300	127.40800	-44.72	57.90
1.471	127.434000	479	127.40800	127.46000	-45.21	46.94
1.472	127.493000	478	127.46000	127.52500	-45.81	58.22
1.473	127.562000	477	127.52500	127.59900	-46.13	66.39
1.474	127.625000	476	127.59900	127.65100	-45.55	46.32
1.475	127.676000	475	127.65100	127.70100	-44.88	44.78
1.476	127.740000	474	127.70100	127.77800	-44.78	69.31
1.477	127.807000	473	127.77800	127.83600	-45.71	51.98
1.478	127.865000	472	127.83600	127.89400	-46.55	51.92
1.479	127.926000	471	127.89400	127.95800	-46.04	56.93
1.480	127.989000	470	127.95800	128.02000	-45.08	55.74
1.481	128.064000	469	128.02000	128.10800	-44.75	78.59
1.482	128.137000	468	128.10800	128.16700	-45.18	53.53
1.483	128.204000	467	128.16700	128.24200	-45.91	66.59
1.484	128.273000	466	128.24200	128.30300	-46.20	55.15
1.485	128.337000	465	128.30300	128.37100	-45.65	60.55
1.486	128.393000	464	128.37100	128.41500	-44.91	39.65
1.487	128.442000	463	128.41500	128.47000	-44.48	49.03
1.488	128.500000	462	128.47000	128.53100	-44.08	54.88
1.489	128.567000	461	128.53100	128.60400	-43.92	65.04
1.490	128.631000	460	128.60400	128.65900	-44.09	49.17
1.491	128.684000	459	128.65900	128.70900	-45.26	44.66
1.492	128.733000	458	128.70900	128.75700	-46.52	42.92
1.493	128.778000	457	128.75700	128.79900	-46.82	37.77
1.494	128.825000	456	128.79900	128.85100	-46.49	46.46
1.495	128.887000	455	128.85100	128.92300	-45.58	64.47
1.496	128.970000	454	128.92300	129.01800	-45.16	85.16
1.497	129.046000	453	129.01800	129.07300	-46.06	49.76
1.498	129.107000	452	129.07300	129.14100	-46.67	61.07
1.499	129.171000	451	129.14100	129.20100	-45.98	53.22
1.500	129.228000	450	129.20100	129.25600	-45.05	49.84
1.501	129.296000	449	129.25600	129.33600	-45.10	71.09
1.502	129.367000	448	129.33600	129.39800	-46.20	55.46
1.503	129.430000	447	129.39800	129.46300	-47.00	58.48
1.504	129.489000	446	129.46300	129.51500	-46.64	47.13
1.505	129.563000	445	129.51500	129.61100	-45.83	85.37
1.506	129.653000	444	129.61100	129.69500	-44.72	75.71
1.507	129.720000	443	129.69500	129.74400	-44.53	43.84
1.508	129.787000	442	129.74400	129.83000	-44.70	77.22
1.509	129.862000	441	129.83000	129.89300	-44.93	56.06
1.510	129.925000	440	129.89300	129.95700	-45.05	57.87
1.511	129.986000	439	129.95700	130.01500	-44.99	52.22
1.512	130.054000	438	130.01500	130.09200	-45.07	69.33
1.513	130.125000	437	130.09200	130.15900	-45.46	59.53
1.514	130.182000	436	130.15900	130.20500	-45.56	41.42
1.515	130.232000	435	130.20500	130.26000	-45.15	49.36
1.516	130.288000	434	130.26000	130.31600	-44.34	50.43
1.517	130.338000	433	130.31600	130.36000	-43.60	39.53
1.518	130.380000	432	130.36000	130.40000	-43.37	35.74
1.519	130.429000	431	130.40000	130.45700	-43.55	51.29
1.520	130.483000	430	130.45700	130.51000	-43.36	47.77
1.521	130.548000	429	130.51000	130.58500	-42.13	67.03
1.522	130.625000	428	130.58500	130.66500	-41.03	71.70
1.523	130.705000	427	130.66500	130.74500	-41.80	71.68
1.524	130.787000	426	130.74500	130.82900	-42.40	75.51
1.525	130.858000	425	130.82900	130.88800	-42.49	53.13
1.526	130.912000	424	130.88800	130.93600	-42.81	43.44
1.527	130.962000	423	130.93600	130.98700	-43.30	45.49
1.528	131.031000	422	130.98700	131.07500	-43.74	79.45
1.529	131.111000	421	131.07500	131.14700	-44.29	64.51
1.530	131.182000	420	131.14700	131.21700	-45.57	62.90
1.531	131.257000	419	131.21700	131.29800	-46.72	72.31
1.532	131.324000	418	131.29800	131.35000	-46.94	46.97
1.533	131.397000	417	131.35000	131.44400	-47.03	83.95
1.534	131.483000	416	131.44400	131.52300	-46.98	70.64
1.535	131.554000	415	131.52300	131.58600	-47.04	57.08
1.536	131.613000	414	131.58600	131.64100	-47.24	48.96
1.537	131.673000	413	131.64100	131.70600	-47.44	58.32
1.538	131.728000	412	131.70600	131.75000	-47.45	39.26
1.539	131.787000	411	131.75000	131.82500	-47.33	67.73
1.540	131.865000	410	131.82500	131.90500	-46.91	71.80
1.541	131.932000	409	131.90500	131.95900	-45.75	48.45
1.542	131.987000	408	131.95900	132.01400	-44.82	49.54
1.543	132.049000	407	132.01400	132.08400	-45.13	62.99
1.544	132.119000	406	132.08400	132.15500	-45.73	63.41
1.545	132.180000	405	132.15500	132.20500	-45.88	44.88
1.546	132.238000	404	132.20500	132.27000	-45.25	58.11
1.547	132.316000	403	132.27000	132.36200	-44.01	83.00
1.548	132.399000	402	132.36200	132.43700	-43.96	67.63
1.549	132.489000	401	132.43700	132.54100	-44.82	93.44
1.550	132.566000	400	132.54100	132.59200	-45.36	46.12
1.551	132.620000	399	132.59200	132.64800	-45.24	49.51
1.552	132.678000	398	132.64800	132.70800	-44.49	54.59
1.553	132.746000	397	132.70800	132.78400	-44.00	68.04
1.554	132.818000	396	132.78400	132.85200	-44.21	61.37
1.555	132.898000	395	132.85200	132.94400	-44.64	82.98
1.556	132.983000	394	132.94400	133.02300	-45.64	71.57
1.557	133.055000	393	133.02300	133.08700	-46.82	58.10
1.558	133.118000	392	133.08700	133.14800	-47.43	54.19
1.559	133.184000	391	133.14800	133.22000	-47.19	65.52
1.560	133.262000	390	133.22000	133.30300	-46.12	74.52
1.561	133.329000	389	133.30300	133.35500	-45.74	47.46
1.562	133.379000	388	133.35500	133.40300	-45.74	43.07
1.563	133.427000	387	133.40300	133.45100	-46.06	43.75
1.564	133.492000	386	133.45100	133.53300	-46.56	74.13
1.565	133.571000	385	133.53300	133.61000	-46.93	70.16
1.566	133.645000	384	133.61000	133.68100	-46.71	64.15
1.567	133.721000	383	133.68100	133.76200	-45.56	73.21
1.568	133.796000	382	133.76200	133.83000	-44.85	61.26
1.569	133.857000	381	133.83000	133.88400	-44.89	49.57
1.570	133.916000	380	133.88400	133.94700	-45.39	57.40
1.571	133.982000	379	133.94700	134.01800	-45.98	63.33
1.572	134.053000	378	134.01800	134.08700	-46.07	63.20
1.573	134.111000	377	134.08700	134.13400	-45.87	42.07
1.574	134.161000	376	134.13400	134.18800	-45.70	48.05
1.575	134.242000	375	134.18800	134.29500	-45.86	96.88
1.576	134.340000	374	134.29500	134.38500	-46.64	81.12
1.577	134.428000	373	134.38500	134.47000	-46.08	77.01
1.578	134.503000	372	134.47000	134.53600	-45.05	59.34
1.579	134.566000	371	134.53600	134.59700	-44.43	54.85
1.580	134.630000	370	134.59700	134.66300	-44.52	59.74
1.581	134.686000	369	134.66300	134.71000	-45.29	42.48
1.582	134.730000	368	134.71000	134.75000	-45.39	35.79
1.583	134.779000	367	134.75000	134.80700	-45.59	51.53
1.584	134.833000	366	134.80700	134.86000	-45.46	47.55
1.585	134.893000	365	134.86000	134.92500	-45.74	58.71
1.586	134.958000	364	134.92500	134.99000	-46.44	59.01
1.587	135.036000	363	134.99000	135.08100	-46.56	81.94
1.588	135.142000	362	135.08100	135.20200	-44.72	109.62
1.589	135.238000	361	135.20200	135.27400	-44.26	64.34
1.590	135.302000	360	135.27400	135.32900	-44.84	49.94
1.591	135.356000	359	135.32900	135.38300	-45.38	48.29
1.592	135.407000	358	135.38300	135.43200	-45.65	45.16
1.593	135.457000	357	135.43200	135.48200	-45.62	45.17
1.594	135.508000	356	135.48200	135.53500	-45.45	47.19
1.595	135.570000	355	135.53500	135.60500	-45.22	63.50
1.596	135.634000	354	135.60500	135.66300	-45.32	51.98
1.597	135.688000	353	135.66300	135.71200	-45.68	44.30
1.598	135.733000	352	135.71200	135.75500	-45.97	39.31
1.599	135.786000	351	135.75500	135.81800	-46.05	57.09
1.600	135.857000	350	135.81800	135.89500	-45.72	69.47
1.601	135.930000	349	135.89500	135.96500	-46.04	62.93
1.602	135.992000	348	135.96500	136.01800	-46.17	47.81
1.603	136.043000	347	136.01800	136.06900	-45.99	46.46
1.604	136.097000	346	136.06900	136.12600	-45.85	51.88
1.605	136.164000	345	136.12600	136.20200	-45.82	68.91
1.606	136.234000	344	136.20200	136.26700	-45.33	57.90
1.607	136.296000	343	136.26700	136.32500	-44.81	52.47
1.608	136.351000	342	136.32500	136.37700	-44.44	47.66
1.609	136.418000	341	136.37700	136.45900	-43.70	73.26
1.610	136.500000	340	136.45900	136.54000	-43.76	73.22
1.611	136.573000	339	136.54000	136.60600	-44.39	59.58
1.612	136.633000	338	136.60600	136.66000	-44.86	48.42
1.613	136.692000	337	136.66000	136.72500	-45.35	58.22
1.614	136.756000	336	136.72500	136.78600	-45.72	55.05
1.615	136.817000	335	136.78600	136.84900	-45.18	56.19
1.616	136.890000	334	136.84900	136.93100	-44.31	74.18
1.617	136.968000	333	136.93100	137.00500	-44.52	66.11
1.618	137.034000	332	137.00500	137.06200	-45.49	51.54
1.619	137.092000	331	137.06200	137.12200	-46.25	53.68
1.620	137.159000	330	137.12200	137.19500	-46.55	66.01
1.621	137.246000	329	137.19500	137.29800	-47.02	92.28
1.622	137.332000	328	137.29800	137.36500	-46.53	60.57
1.623	137.402000	327	137.36500	137.43900	-45.97	65.97
1.624	137.477000	326	137.43900	137.51500		68.05
1.625	137.551000	325	137.51500	137.58700	-46.38	63.78
1.626	137.625000	324	137.58700	137.66300	-45.93	67.54
1.627	137.697000	323	137.66300	137.73100	-45.54	60.49
1.628	137.762000	322	137.73100	137.79200	-45.22	53.72
1.629	137.817000	321	137.79200	137.84200	-45.67	45.42
1.630	137.886000	320	137.84200	137.93000	-45.74	78.04
1.631	137.965000	319	137.93000	138.00000	-45.19	62.52
1.632	138.047000	318	138.00000	138.09300	-44.75	82.86
1.633	138.149000	317	138.09300	138.20400	-46.29	99.54
1.634	138.244000	316	138.20400	138.28300	-47.64	70.66
1.635	138.321000	315	138.28300	138.36000	-47.11	69.64
1.636	138.393000	314	138.36000	138.42700	-46.14	59.97
1.637	138.458000	313	138.42700	138.48800	-45.24	55.55
1.638	138.515000	312	138.48800	138.54200		48.61
1.639	138.577000	311	138.54200	138.61300	-44.05	63.40
1.640	138.645000	310	138.61300	138.67700	-43.89	57.66
1.641	138.713000	309	138.67700	138.74800	-44.17	63.74
1.642	138.794000	308	138.74800	138.84000	-43.81	83.71
1.643	138.873000	307	138.84000	138.90500	-42.24	58.46
1.644	138.962000	306	138.90500	139.01800	-42.27	102.51
1.645	139.061000	305	139.01800	139.10500	-43.08	78.66
1.646	139.138000	304	139.10500	139.17100	-44.96	59.45
1.647	139.196000	303	139.17100	139.22100	-45.33	45.66
1.648	139.244000	302	139.22100	139.26800	-45.51	42.18
1.649	139.300000	301	139.26800	139.33300	-45.16	59.46
1.650	139.379000	300	139.33300	139.42500	-44.66	83.26
1.651	139.468000	299	139.42500	139.51000	-44.54	76.70
1.652	139.559000	298	139.51000	139.60700	-45.23	88.24
1.653	139.649000	297	139.60700	139.69100	-46.08	75.77
1.654	139.726000	296	139.69100	139.76000	-45.83	62.28
1.655	139.788000	295	139.76000	139.81700	-45.84	51.46
1.656	139.840000	294	139.81700	139.86300	-46.43	40.96
1.657	139.895000	293	139.86300	139.92800	-47.06	58.94
1.658	139.969000	292	139.92800	140.00900	-46.61	72.94
1.659	140.049000	291	140.00900	140.09000	-45.56	73.55
1.660	140.130000	290	140.09000	140.17000	-44.67	71.92
1.661	140.199000	289	140.17000	140.22800	-44.36	52.17
1.662	140.264000	288	140.22800	140.30000	-44.55	64.90
1.663	140.345000	287	140.30000	140.39000	-44.83	81.04
1.664	140.419000	286	140.39000	140.44900	-45.71	53.49
1.665	140.477000	285	140.44900	140.50500	-46.16	50.17
1.666	140.535000	284	140.50500	140.56500	-45.30	54.38
1.667	140.597000	283	140.56500	140.63000	-44.91	58.40
1.668	140.670000	282	140.63000	140.71000	-44.87	72.24
1.669	140.748000	281	140.71000	140.78500	-45.16	67.77
1.670	140.825000	280	140.78500	140.86500	-45.46	72.33
1.671	140.914000	279	140.86500	140.96300	-46.09	88.47
1.672	141.008000	278	140.96300	141.05300	-46.56	81.44
1.673	141.086000	277	141.05300	141.11900	-46.08	59.51
1.674	141.155000	276	141.11900	141.19100	-44.78	65.61
1.675	141.236000	275	141.19100	141.28100	-43.57	81.36
1.676	141.310000	274	141.28100	141.34000	-44.37	53.28
1.677	141.377000	273	141.34000	141.41500	-45.68	67.73
1.678	141.463000	272	141.41500	141.51000	-45.50	85.70
1.679	141.543000	271	141.51000	141.57700	-44.40	60.73
1.680	141.614000	270	141.57700	141.65100	-43.40	66.57
1.681	141.681000	269	141.65100	141.71100	-43.26	54.54
1.682	141.740000	268	141.71100	141.76900	-44.79	52.22
1.683	141.788000	267	141.76900	141.80800	-45.93	34.85
1.684	141.842000	266	141.80800	141.87600	-46.32	62.18
1.685	141.917000	265	141.87600	141.95700	-45.68	72.68
1.686	142.011000	264	141.95700	142.06500	-44.61	97.52
1.687	142.139000	263	142.06500	142.21400	-43.92	134.26
1.688	142.244000	262	142.21400	142.27500	-44.00	55.12
1.689	142.299000	261	142.27500	142.32300	-43.83	43.35
1.690	142.347000	260	142.32300	142.37200	-43.73	44.58
1.691	142.399000	259	142.37200	142.42600	-44.02	48.58
1.692	142.452000	258	142.42600	142.47700	-44.51	46.03
1.693	142.502000	257	142.47700	142.52700	-45.11	45.29
1.694	142.561000	256	142.52700	142.59500	-45.59	61.19
1.695	142.638000	255	142.59500	142.68200	-45.37	79.15
1.696	142.712000	254	142.68200	142.74200	-45.13	54.32
1.697	142.765000	253	142.74200	142.78800	-45.13	41.51
1.698	142.821000	252	142.78800	142.85500	-45.13	60.39
1.699	142.885000	251	142.85500	142.91500	-45.16	54.07
1.700	142.950000	250	142.91500	142.98500	-45.35	63.73
1.701	143.029000	249	142.98500	143.07200	-45.77	78.92
1.702	143.113000	248	143.07200	143.15500	-46.09	75.19
1.703	143.196000	247	143.15500	143.23800	-45.52	74.95
1.704	143.274000	246	143.23800	143.31100	-45.02	66.66
1.705	143.339000	245	143.31100	143.36600	-44.80	49.80
1.706	143.413000	244	143.36600	143.46000	-44.61	84.81
1.707	143.514000	243	143.46000	143.56900	-44.50	98.40
1.708	143.603000	242	143.56900	143.63700	-43.94	61.81
1.709	143.676000	241	143.63700	143.71500	-43.62	69.93
1.710	143.753000	240	143.71500	143.79100	-43.11	68.35
1.711	143.820000	239	143.79100	143.84900	-42.84	53.10
1.712	143.875000	238	143.84900	143.90000	-42.82	45.69
1.713	143.938000	237	143.90000	143.97500	-43.15	68.35
1.714	144.018000	236	143.97500	144.06100	-44.16	77.86
1.715	144.088000	235	144.06100	144.11500	-45.33	48.84
1.716	144.151000	234	144.11500	144.18700	-45.97	65.04
1.717	144.226000	233	144.18700	144.26600	-46.03	72.39
1.718	144.314000	232	144.26600	144.36100	-44.96	86.33
1.719	144.397000	231	144.36100	144.43200	-44.05	64.54
1.720	144.458000	230	144.43200	144.48400	-43.87	46.97
1.721	144.505000	229	144.48400	144.52600	-44.23	38.07
1.722	144.548000	228	144.52600	144.57100	-44.59	40.90
1.723	144.600000	227	144.57100	144.62900	-44.85	52.73
1.724	144.660000	226	144.62900	144.69100	-45.27	56.08
1.725	144.743000	225	144.69100	144.79500	-45.81	94.96
1.726	144.820000	224	144.79500	144.84400	-45.59	44.81
1.727	144.866000	223	144.84400	144.88800	-45.40	40.05
1.728	144.922000	222	144.88800	144.95500	-45.40	60.61
1.729	144.992000	221	144.95500	145.02800	-45.23	66.44
1.730	145.066000	220	145.02800	145.10500	-43.97	69.94
1.731	145.149000	219	145.10500	145.19300	-42.40	79.58
1.732	145.245000	218	145.19300	145.29800	-41.92	95.48
1.733	145.331000	217	145.29800	145.36400	-43.50	60.52
1.734	145.394000	216	145.36400	145.42500	-44.89	55.05
1.735	145.452000	215	145.42500	145.47900	-45.82	49.51
1.736	145.507000	214	145.47900	145.53600	-46.43	52.23
1.737	145.571000	213	145.53600	145.60500	-46.53	62.38
1.738	145.638000	212	145.60500	145.67100	-46.26	60.16
1.739	145.701000	211	145.67100	145.73100	-46.01	54.29
1.740	145.768000	210	145.73100	145.80500	-46.12	67.49
1.741	145.861000	209	145.80500	145.91600	-45.47	100.76
1.742	145.947000	208	145.91600	145.97900	-45.26	57.31
1.743	146.007000	207	145.97900	146.03500	-45.08	51.14
1.744	146.082000	206	146.03500	146.12800	-44.50	83.44
1.745	146.162000	205	146.12800	146.19700	-44.38	63.32
1.746	146.227000	204	146.19700	146.25800	-44.71	55.06
1.747	146.301000	203	146.25800	146.34400	-46.17	77.16
1.748	146.376000	202	146.34400	146.40800	-47.43	57.96
1.749	146.442000	201	146.40800	146.47600	-47.77	61.94
1.750	146.511000	200	146.47600	146.54600	-47.14	63.38
1.751	146.595000	199	146.54600	146.64300	-46.08	87.22
1.752	146.675000	198	146.64300	146.70700	-45.57	58.62
1.753	146.734000	197	146.70700	146.76100	-45.84	48.68
1.754	146.803000	196	146.76100	146.84400	-46.08	75.38
1.755	146.898000	195	146.84400	146.95100	-45.75	97.97
1.756	146.982000	194	146.95100	147.01300	-45.51	56.37
1.757	147.042000	193	147.01300	147.07100	-45.41	53.00
1.758	147.095000	192	147.07100	147.12000	-45.60	44.87
1.759	147.140000	191	147.12000	147.16000	-45.85	36.75
1.760	147.181000	190	147.16000	147.20200	-46.07	38.13
1.761	147.227000	189	147.20200	147.25200	-46.09	45.59
1.762	147.280000	188	147.25200	147.30900	-45.71	52.51
1.763	147.337000	187	147.30900	147.36500	-44.96	50.35
1.764	147.400000	186	147.36500	147.43500	-44.63	64.08
1.765	147.464000	185	147.43500	147.49200	-45.26	52.36
1.766	147.523000	184	147.49200	147.55300	-45.68	54.80
1.767	147.581000	183	147.55300	147.60900	-45.43	51.26
1.768	147.642000	182	147.60900	147.67500	-45.06	59.89
1.769	147.707000	181	147.67500	147.73800	-44.59	57.73
1.770	147.773000	180	147.73800	147.80700	-44.42	61.90
1.771	147.855000	179	147.80700	147.90200	-44.21	86.96
1.772	147.940000	178	147.90200	147.97800	-43.93	68.25
1.773	148.020000	177	147.97800	148.06200	-43.97	76.49
1.774	148.111000	176	148.06200	148.16000	-44.39	88.42
1.775	148.202000	175	148.16000	148.24500	-44.58	77.63
1.776	148.293000	174	148.24500	148.34200	-44.29	88.34
1.777	148.371000	173	148.34200	148.40100	-44.45	53.26
1.778	148.435000	172	148.40100	148.47000	-44.54	63.17
1.779	148.518000	171	148.47000	148.56500	-44.42	86.60
1.780	148.603000	170	148.56500	148.64200	-45.05	70.11
1.781	148.674000	169	148.64200	148.70700	-46.16	59.85
1.782	148.731000	168	148.70700	148.75500	-46.21	43.51
1.783	148.779000	167	148.75500	148.80300	-45.65	44.13
